"accelX.g.","accelY.g.","accelZ.g.","accelUserX.g.","accelUserY.g.","accelUserZ.g.","gyroX.rad.s.","gyroY.rad.s.","gyroZ.rad.s.","Roll.rads.","Pitch.rads.","Yaw.rads.","m11","m12","m13","m21","m22","m23","m31","m32","m33","qX","qY","qZ","qW","ActivityType","ActivityConfidence","Pressure.kilopascals.","RelativeAltitude.meters.","magX.µT.","magY.µT.","magZ.µT.","calMagX.µT.","calMagY.µT.","calMagZ.µT."
-0.4829,0.879,-0.64,-0.0875,0.1564,-0.077,0.3705,-0.4153,-0.2858,-0.6125,-0.8165,1.0747,0.0209,0.919,0.3937,-0.6022,0.3259,-0.7288,-0.7981,-0.2218,0.5603,-0.1835,-0.4315,0.5508,0.6905,"Andando","Med",102.0587,35.5128,89.4223,109.3237,-677.7698,-15.8851,12.72,-44.5176
-0.4851,0.8479,-0.6653,-0.0886,0.1263,-0.0983,0.2513,-0.263,-0.2587,-0.6151,-0.8133,1.0739,0.0207,0.9178,0.3965,-0.604,0.3275,-0.7266,-0.7967,-0.2244,0.5612,-0.1817,-0.4318,0.5507,0.6909,"Andando","Med",102.0587,35.5128,89.4223,109.3237,-677.7698,-15.8851,12.72,-44.5176
-0.4865,0.8363,-0.6807,-0.0872,0.113,-0.1184,0.1528,-0.12,-0.2161,-0.6164,-0.811,1.0735,0.021,0.9171,0.3982,-0.6053,0.3286,-0.725,-0.7957,-0.2258,0.562,-0.1805,-0.4317,0.5506,0.6913,"Andando","Med",102.0587,35.5128,88.2521,108.6669,-677.759,-16.0667,12.5166,-44.4906
-0.4975,0.8224,-0.6734,-0.0967,0.1024,-0.1125,0.0942,0.008,-0.1635,-0.6164,-0.8094,1.0728,0.0222,0.9167,0.3989,-0.6061,0.3296,-0.7239,-0.795,-0.2257,0.563,-0.18,-0.4314,0.5503,0.6919,"Andando","Med",102.0587,35.5128,88.2521,108.6669,-677.759,-16.0667,12.5166,-44.4906
-0.4963,0.7916,-0.6615,-0.0985,0.0767,-0.1001,0.0504,0.0879,-0.1231,-0.616,-0.8083,1.0726,0.0229,0.9166,0.3991,-0.6068,0.33,-0.7231,-0.7945,-0.2256,0.5638,-0.1797,-0.4311,0.5502,0.6922,"Andando","Med",102.0587,35.5128,88.2521,108.6669,-677.759,-16.1897,12.2922,-44.4555
-0.4834,0.7481,-0.6498,-0.0873,0.0336,-0.0884,0.0079,0.0829,-0.0981,-0.6162,-0.8076,1.0719,0.0237,0.9164,0.3995,-0.607,0.3307,-0.7226,-0.7943,-0.2254,0.5641,-0.1795,-0.431,0.5499,0.6926,"Andando","Med",102.0587,35.5128,88.2521,108.6669,-677.759,-16.1897,12.2922,-44.4555
-0.4591,0.715,-0.6251,-0.0639,-0.0017,-0.0677,-0.0044,-0.007,-0.0856,-0.6173,-0.8068,1.0719,0.0231,0.916,0.4004,-0.6075,0.331,-0.7221,-0.794,-0.2265,0.5641,-0.1789,-0.4312,0.55,0.6925,"Andando","Med",102.0587,35.5128,88.0488,108.5719,-677.5775,-16.015,11.9203,-44.453
-0.4101,0.709,-0.5034,-0.0052,-0.012,0.0533,0.0178,-0.127,-0.0746,-0.6235,-0.8026,1.0745,0.0173,0.9138,0.4057,-0.611,0.3308,-0.7192,-0.7915,-0.2354,0.5641,-0.1749,-0.4329,0.5513,0.6914,"Andando","Med",102.0587,35.5128,88.0488,108.5719,-677.5775,-16.284,11.6559,-44.5556
-0.4101,0.709,-0.5034,-0.0016,0.0016,0.0828,0.205,-0.3254,-0.0448,-0.6246,-0.8015,1.0753,0.0161,0.9134,0.4068,-0.612,0.3307,-0.7184,-0.7907,-0.2374,0.5643,-0.174,-0.4331,0.5517,0.6912,"Andando","Med",102.0587,35.5128,88.0488,108.5719,-677.5775,-16.284,11.6559,-44.5556
-0.4083,0.7218,-0.4772,0.0046,0.0091,0.1017,0.26,-0.369,-0.0511,-0.627,-0.7989,1.0773,0.0133,0.9123,0.4093,-0.6143,0.3304,-0.7166,-0.789,-0.2418,0.5648,-0.1718,-0.4337,0.5525,0.6908,"Andando","Med",102.0587,35.5128,87.7774,108.5337,-677.4669,-16.284,11.6559,-44.5556
-0.4025,0.7271,-0.4606,0.0061,0.0102,0.102,0.3012,-0.4498,-0.0772,-0.6285,-0.7974,1.0786,0.0115,0.9117,0.4107,-0.6157,0.3301,-0.7155,-0.7879,-0.2446,0.5651,-0.1705,-0.434,0.553,0.6904,"Andando","Med",102.0587,35.5128,87.7774,108.5337,-677.4669,-16.4179,11.4412,-44.3636
-0.3885,0.7383,-0.4566,0.0238,0.0227,0.1089,0.3259,-0.5646,-0.0802,-0.6321,-0.7941,1.0807,0.0079,0.9102,0.4141,-0.6184,0.3299,-0.7133,-0.7858,-0.2505,0.5655,-0.1677,-0.4349,0.554,0.6898,"Andando","Med",102.0587,35.5128,87.7774,108.5337,-677.4669,-16.4179,11.4412,-44.3636
-0.3885,0.7383,-0.4566,0.0309,0.0361,0.103,0.3259,-0.5646,-0.0802,-0.6343,-0.7925,1.0819,0.0058,0.9093,0.4161,-0.6198,0.3298,-0.7121,-0.7847,-0.2538,0.5655,-0.1662,-0.4355,0.5545,0.6894,"Andando","Med",102.0587,35.5128,87.7774,108.5337,-677.4669,-16.4179,11.4412,-44.3636
-0.3843,0.751,-0.4653,0.033,0.0373,0.1028,0.3073,-0.6969,-0.0739,-0.6369,-0.7909,1.0832,0.0031,0.9083,0.4182,-0.6213,0.3294,-0.711,-0.7836,-0.2576,0.5654,-0.1645,-0.4362,0.5552,0.6888,"Andando","Med",102.0587,35.5128,86.8636,108.3919,-677.5638,-16.9067,11.0021,-44.4188
-0.3685,0.7632,-0.4857,0.0501,0.0523,0.0841,0.3073,-0.6969,-0.0739,-0.6432,-0.788,1.085,-0.0024,0.9061,0.423,-0.6237,0.3293,-0.7089,-0.7817,-0.2655,0.5644,-0.1612,-0.438,0.5562,0.6876,"Andando","Med",102.0587,35.5128,86.8636,108.3919,-677.5638,-16.9067,11.0021,-44.4188
-0.3468,0.7693,-0.5113,0.0781,0.0616,0.0551,0.2418,-0.7815,-0.0855,-0.6502,-0.7854,1.0865,-0.0082,0.9037,0.428,-0.6258,0.3292,-0.7071,-0.78,-0.2736,0.5628,-0.1579,-0.4401,0.5572,0.6863,"Andando","Med",102.0587,35.5128,86.8636,108.3919,-677.5638,-17.5675,10.9271,-44.2824
-0.3513,0.765,-0.5173,0.0848,0.0613,0.0447,0.1707,-0.6074,-0.0918,-0.6565,-0.7832,1.0874,-0.0131,0.9015,0.4325,-0.6275,0.3294,-0.7056,-0.7785,-0.2806,0.5613,-0.155,-0.4419,0.5579,0.6851,"Andando","Med",102.0587,35.5128,86.8636,108.3919,-677.5638,-17.5675,10.9271,-44.2824
-0.3903,0.7579,-0.5207,0.0556,0.0541,0.0404,0.1707,-0.6074,-0.0918,-0.6609,-0.7812,1.0886,-0.0168,0.8999,0.4359,-0.6291,0.3293,-0.7041,-0.7771,-0.286,0.5606,-0.1527,-0.4432,0.5586,0.6843,"Andando","Med",102.0587,35.5128,85.7571,107.5956,-676.8615,-18.116,10.8288,-43.9628
-0.4365,0.7654,-0.5243,0.0089,0.0604,0.0376,0.1611,-0.3741,-0.0663,-0.6626,-0.7795,1.0898,-0.0185,0.899,0.4376,-0.6306,0.3291,-0.7029,-0.7759,-0.289,0.5608,-0.1513,-0.4435,0.5591,0.684,"Andando","Med",102.0587,35.5128,85.7571,107.5956,-676.8615,-18.116,10.8288,-43.9628
-0.4573,0.7729,-0.5312,-0.0176,0.07,0.0321,0.1453,-0.1316,-0.0291,-0.6623,-0.7782,1.0912,-0.0191,0.8988,0.438,-0.6318,0.3286,-0.702,-0.7749,-0.2901,0.5616,-0.1505,-0.4433,0.5595,0.6839,"Andando","Med",102.0587,35.5128,85.7571,107.5956,-676.8615,-18.1384,10.5917,-43.9468
-0.4488,0.7749,-0.542,-0.0147,0.0727,0.0227,0.0882,3e-04,-0.0042,-0.6617,-0.7776,1.092,-0.0191,0.8988,0.4379,-0.6324,0.3283,-0.7016,-0.7744,-0.2903,0.5622,-0.1503,-0.4431,0.5597,0.684,"Andando","Med",102.0587,35.5128,85.7571,107.5956,-676.8615,-18.1384,10.5917,-43.9468
-0.4205,0.7766,-0.5434,0.0109,0.0747,0.0168,0.0049,0.0192,0.0046,-0.6617,-0.7777,1.0923,-0.0194,0.8989,0.4378,-0.6325,0.3281,-0.7017,-0.7743,-0.2905,0.5621,-0.1503,-0.4431,0.5598,0.6839,"Andando","Med",102.0587,35.5128,85.1404,107.2216,-676.8307,-18.1872,10.604,-44.1689
-0.3873,0.7747,-0.524,0.0439,0.0737,0.0327,-0.0744,-0.0139,-0.0062,-0.6625,-0.7782,1.0916,-0.0196,0.8987,0.4381,-0.6319,0.3284,-0.702,-0.7748,-0.2906,0.5615,-0.1504,-0.4434,0.5596,0.6838,"Andando","Med",102.0587,35.5128,85.1404,107.2216,-676.8307,-18.1872,10.604,-44.1689
-0.3531,0.7626,-0.4911,0.079,0.0637,0.0615,-0.1192,-0.0428,-0.0317,-0.6639,-0.7787,1.0906,-0.02,0.8984,0.4387,-0.6313,0.3289,-0.7023,-0.7752,-0.291,0.5606,-0.1504,-0.4439,0.5594,0.6836,"Andando","Med",102.0587,35.5128,85.1404,107.2216,-676.8307,-18.3782,10.9485,-44.1931
-0.3314,0.7395,-0.4488,0.1055,0.0421,0.1032,-0.1124,-0.0636,-0.0608,-0.6655,-0.7788,1.0894,-0.0202,0.898,0.4395,-0.6309,0.3296,-0.7024,-0.7756,-0.2914,0.5599,-0.1503,-0.4444,0.5591,0.6836,"Andando","Med",102.0587,35.5128,85.1404,107.2216,-676.8307,-18.3782,10.9485,-44.1931
-0.3285,0.7141,-0.4241,0.112,0.0166,0.1328,-0.0733,-0.064,-0.0768,-0.6668,-0.7785,1.0886,-0.0204,0.8976,0.4403,-0.6308,0.3302,-0.7022,-0.7757,-0.2921,0.5595,-0.15,-0.4447,0.559,0.6836,"Andando","Med",102.0587,35.5128,85.3071,106.8968,-676.9341,-18.4606,10.9211,-44.1564
-0.3305,0.6881,-0.43,0.1113,-0.0081,0.1326,-0.0268,-0.0456,-0.0836,-0.6675,-0.7778,1.0881,-0.0202,0.8973,0.441,-0.631,0.3307,-0.7017,-0.7755,-0.2924,0.5595,-0.1496,-0.4448,0.5588,0.6838,"Andando","Med",102.0587,35.5128,85.3071,106.8968,-676.9341,-18.4606,10.9211,-44.1564
-0.3409,0.6626,-0.4554,0.1037,-0.0346,0.111,0.0135,-0.0042,-0.078,-0.6675,-0.777,1.088,-0.0198,0.8971,0.4414,-0.6315,0.331,-0.7012,-0.7751,-0.2926,0.56,-0.1493,-0.4447,0.5587,0.6839,"Andando","Med",102.0587,35.5128,85.3071,106.8968,-676.9341,-18.3177,11.0718,-43.8644
-0.3674,0.655,-0.4984,0.0803,-0.0459,0.0719,0.0256,0.0202,-0.0538,-0.6674,-0.7765,1.0881,-0.0196,0.897,0.4416,-0.6319,0.3311,-0.7008,-0.7748,-0.2928,0.5603,-0.1491,-0.4445,0.5587,0.6841,"Andando","Med",102.0587,35.5128,85.3071,106.8968,-676.9341,-18.3177,11.0718,-43.8644
-0.3897,0.6606,-0.5427,0.0547,-0.0417,0.0248,0.0066,-6e-04,-0.0196,-0.6674,-0.7763,1.0885,-0.0198,0.897,0.4416,-0.6321,0.3309,-0.7006,-0.7746,-0.293,0.5604,-0.149,-0.4445,0.5589,0.684,"Andando","Med",102.0587,35.5128,85.8158,106.516,-676.6857,-18.4145,10.8685,-43.9426
-0.3956,0.6701,-0.5636,0.0464,-0.033,-9e-04,-0.0193,-0.0194,0.0131,-0.6671,-0.777,1.089,-0.0205,0.8972,0.4412,-0.6318,0.3304,-0.7012,-0.7748,-0.2931,0.5601,-0.1492,-0.4446,0.5591,0.6837,"Andando","Med",102.0587,35.5128,85.8158,106.516,-676.6857,-18.3593,10.9953,-43.9441
-0.4062,0.6784,-0.5757,0.0373,-0.0253,-0.0138,-0.0435,-0.0131,0.0392,-0.6667,-0.7782,1.0897,-0.0211,0.8976,0.4404,-0.6313,0.3296,-0.702,-0.7752,-0.2928,0.5597,-0.1497,-0.4447,0.5593,0.6834,"Andando","Med",102.0587,35.5128,85.8158,106.516,-676.6857,-18.3593,10.9953,-43.9441
-0.423,0.6853,-0.584,0.0193,-0.0185,-0.0235,-0.0677,0.006,0.0592,-0.666,-0.7798,1.0904,-0.0219,0.8981,0.4393,-0.6306,0.3286,-0.7031,-0.7758,-0.2924,0.5591,-0.1503,-0.4448,0.5595,0.683,"Andando","Med",102.0587,35.5128,85.9248,106.5229,-676.9981,-18.5574,11.1703,-44.037
-0.4371,0.6873,-0.5864,0.0038,-0.018,-0.028,-0.0819,0.0205,0.0819,-0.6654,-0.7815,1.0911,-0.0227,0.8986,0.4382,-0.6297,0.3276,-0.7044,-0.7765,-0.292,0.5584,-0.1511,-0.4449,0.5598,0.6825,"Andando","Med",102.0587,35.5128,85.9248,106.5229,-676.9981,-18.5574,11.1703,-44.037
-0.4481,0.6999,-0.5862,-0.0096,-0.0093,-0.0284,-0.0908,0.003,0.1045,-0.6649,-0.7833,1.0921,-0.0239,0.899,0.4372,-0.629,0.3264,-0.7056,-0.7771,-0.2919,0.5577,-0.1517,-0.4452,0.5602,0.6819,"Andando","Med",102.0587,35.5128,85.9248,106.5229,-676.9981,-18.4613,11.2073,-43.9514
-0.4402,0.7198,-0.5858,-0.0072,0.0092,-0.0289,-0.0946,-0.0187,0.1157,-0.6645,-0.7848,1.093,-0.025,0.8995,0.4363,-0.6283,0.3253,-0.7067,-0.7776,-0.2918,0.557,-0.1522,-0.4454,0.5605,0.6814,"Andando","Med",102.0587,35.5128,85.9248,106.5229,-676.9981,-18.4613,11.2073,-43.9514
-0.4211,0.7301,-0.5883,0.0112,0.0216,-0.031,-0.1009,-0.0142,0.1085,-0.6643,-0.7863,1.0939,-0.0263,0.8998,0.4356,-0.6277,0.3243,-0.7077,-0.778,-0.292,0.5562,-0.1527,-0.4456,0.5609,0.6808,"Andando","Med",102.0587,35.5128,85.7082,106.4076,-676.5844,-18.7102,11.2391,-43.9156
-0.4183,0.7333,-0.5937,0.0179,0.0237,-0.0377,-0.1561,-0.1225,0.1066,-0.6649,-0.7878,1.0944,-0.0277,0.8999,0.4352,-0.6268,0.3235,-0.7088,-0.7787,-0.2924,0.5551,-0.153,-0.4461,0.5611,0.6802,"Andando","Med",102.0587,35.5128,85.7082,106.4076,-676.5844,-18.7102,11.2391,-43.9156
-0.4311,0.7336,-0.5887,0.0074,0.0239,-0.0376,-0.1561,-0.1225,0.1066,-0.6663,-0.7897,1.0948,-0.0299,0.8999,0.4352,-0.6258,0.3226,-0.7101,-0.7794,-0.2936,0.5535,-0.1533,-0.4469,0.5614,0.6794,"Andando","Med",102.0587,35.5128,85.7082,106.4076,-676.5844,-18.7978,11.5611,-43.8109
-0.4477,0.733,-0.5685,-0.0094,0.021,-0.0217,-0.1865,-0.1984,0.1219,-0.6683,-0.7918,1.0951,-0.0325,0.8997,0.4354,-0.6246,0.3218,-0.7116,-0.7803,-0.295,0.5514,-0.1535,-0.448,0.5617,0.6784,"Andando","Med",102.0587,35.5128,85.7082,106.4076,-676.5844,-18.7978,11.5611,-43.8109
-0.4619,0.7418,-0.5401,-0.023,0.026,0.0028,-0.2023,-0.2445,0.1445,-0.6705,-0.7941,1.0958,-0.0358,0.8994,0.4356,-0.6234,0.3206,-0.7132,-0.7811,-0.2971,0.5492,-0.1536,-0.4492,0.5622,0.6771,"Andando","Med",102.0587,35.5128,85.7038,106.6355,-676.9991,-18.9875,11.6744,-43.9123
-0.4763,0.7474,-0.5068,-0.0388,0.0334,0.0336,-0.195,-0.2723,0.1759,-0.6723,-0.7962,1.0968,-0.0389,0.8993,0.4356,-0.6223,0.3193,-0.7147,-0.7818,-0.2989,0.5472,-0.1538,-0.4503,0.5628,0.6759,"Andando","Med",102.0587,35.5128,85.7038,106.6355,-676.9991,-18.9875,11.6744,-43.9123
-0.4787,0.7319,-0.4769,-0.0434,0.0201,0.0645,-0.152,-0.2136,0.1946,-0.6727,-0.7981,1.0987,-0.0417,0.8995,0.435,-0.6217,0.3175,-0.716,-0.7821,-0.3003,0.546,-0.154,-0.4509,0.5635,0.6749,"Andando","Med",102.0587,35.5128,85.7038,106.6355,-676.9991,-19.324,11.715,-43.5748
-0.4831,0.7246,-0.4788,-0.0486,0.0058,0.0705,-0.1162,-0.0978,0.2206,-0.6716,-0.8001,1.1009,-0.0436,0.9001,0.4335,-0.6212,0.3154,-0.7174,-0.7825,-0.3005,0.5454,-0.1546,-0.451,0.5642,0.674,"Andando","Med",102.0587,35.5128,85.7038,106.6355,-676.9991,-19.324,11.715,-43.5748
-0.4868,0.7445,-0.5153,-0.0549,0.0209,0.0381,-0.1085,-0.017,0.2551,-0.6694,-0.8024,1.1039,-0.0454,0.9011,0.4313,-0.6206,0.3128,-0.719,-0.7828,-0.3003,0.545,-0.1555,-0.4509,0.5652,0.6731,"Andando","Med",102.0587,35.5128,85.4937,107.1316,-676.735,-19.2145,11.9857,-43.4839
-0.4863,0.7603,-0.5524,-0.0588,0.0373,-0.0014,-0.1227,0.0472,0.2851,-0.6665,-0.805,1.1066,-0.0467,0.9023,0.4285,-0.6198,0.3103,-0.7208,-0.7834,-0.2992,0.5448,-0.1568,-0.4506,0.5659,0.6724,"Andando","Med",102.0587,35.5128,85.4937,107.1316,-676.735,-19.2145,11.9857,-43.4839
-0.4815,0.7625,-0.5741,-0.0562,0.0401,-0.027,-0.1554,0.0936,0.2863,-0.6641,-0.8077,1.1092,-0.0481,0.9035,0.426,-0.6188,0.3078,-0.7227,-0.7841,-0.2983,0.5442,-0.158,-0.4505,0.5667,0.6716,"Andando","Med",102.0587,35.5128,85.4937,107.1316,-676.735,-18.9159,12.0637,-43.4305
-0.4828,0.7635,-0.5708,-0.0574,0.0382,-0.0303,-0.1841,0.0437,0.2688,-0.6624,-0.8106,1.1108,-0.0493,0.9044,0.4238,-0.6174,0.3059,-0.7247,-0.7851,-0.2974,0.5433,-0.1592,-0.4505,0.5672,0.6708,"Andando","Med",102.0587,35.5128,85.4937,107.1316,-676.735,-18.9159,12.0637,-43.4305
-0.4984,0.7597,-0.5461,-0.0746,0.0351,-0.0092,-0.2041,0.0795,0.253,-0.6601,-0.8135,1.1125,-0.0501,0.9056,0.4213,-0.6161,0.3039,-0.7267,-0.7861,-0.296,0.5427,-0.1607,-0.4504,0.5676,0.6702,"Andando","Med",102.0587,35.5128,85.4957,107.4185,-676.51,-18.9618,12.1884,-43.4894
-0.4738,0.7521,-0.516,-0.0674,0.0236,0.0213,-0.1862,0.2357,0.2546,-0.6556,-0.8162,1.1143,-0.0493,0.9073,0.4176,-0.6149,0.302,-0.7285,-0.7871,-0.2927,0.543,-0.1626,-0.4495,0.568,0.67,"Andando","Med",102.0587,35.5128,85.4957,107.4185,-676.51,-18.9618,12.1884,-43.4894
-0.395,0.7582,-0.5029,0.0021,0.0261,0.0409,-0.1582,0.3937,0.2548,-0.6502,-0.8187,1.1164,-0.0478,0.9092,0.4136,-0.6138,0.2999,-0.7303,-0.788,-0.2888,0.5438,-0.1647,-0.4483,0.5683,0.6701,"Andando","Med",102.0587,35.5128,85.4957,107.4185,-676.51,-18.5567,12.554,-43.5634
-0.3397,0.776,-0.5151,0.0638,0.0394,0.0323,-0.1607,0.4267,0.228,-0.6451,-0.8213,1.1177,-0.046,0.9111,0.4096,-0.6126,0.2982,-0.732,-0.7891,-0.2846,0.5444,-0.1669,-0.4471,0.5684,0.6702,"Andando","Med",102.0587,35.5128,85.4957,107.4185,-676.51,-18.5567,12.554,-43.5634
-0.3476,0.7983,-0.5297,0.0637,0.0607,0.0181,-0.1949,0.406,0.215,-0.6401,-0.8241,1.1192,-0.0444,0.9129,0.4057,-0.6111,0.2964,-0.7339,-0.7903,-0.2805,0.5448,-0.1691,-0.4461,0.5685,0.6702,"Andando","Med",102.0587,35.5128,86.141,108.4357,-676.7897,-18.5582,12.6436,-43.7942
-0.3853,0.8054,-0.553,0.0234,0.069,-0.0022,-0.2396,0.4569,0.2238,-0.6345,-0.8275,1.1204,-0.0423,0.915,0.4012,-0.6093,0.2946,-0.7362,-0.7918,-0.2756,0.545,-0.1718,-0.4449,0.5685,0.6703,"Andando","Med",102.0587,35.5128,86.141,108.4357,-676.7897,-17.9346,12.9413,-43.7645
-0.4265,0.8045,-0.5884,-0.0219,0.0649,-0.0361,-0.2935,0.5222,0.256,-0.6288,-0.8314,1.1214,-0.0401,0.9172,0.3963,-0.6069,0.2928,-0.7389,-0.7937,-0.2701,0.545,-0.1748,-0.4438,0.5684,0.6704,"Andando","Med",102.0587,35.5128,86.141,108.4357,-676.7897,-17.9346,12.9413,-43.7645
-0.4494,0.8205,-0.5997,-0.0572,0.0752,-0.0574,-0.3214,0.4885,0.2895,-0.6233,-0.8354,1.1229,-0.0385,0.9193,0.3916,-0.6047,0.2906,-0.7415,-0.7955,-0.2654,0.5447,-0.1776,-0.4428,0.5685,0.6702,"Andando","Med",102.0587,35.5128,86.7552,109.3273,-677.1136,-17.2477,12.9632,-43.9258
-0.423,0.8202,-0.5518,-0.0442,0.0801,-0.0197,-0.2824,0.4473,0.2772,-0.6175,-0.8387,1.1243,-0.0364,0.9213,0.387,-0.6029,0.2887,-0.7438,-0.797,-0.2604,0.545,-0.1803,-0.4416,0.5685,0.6703,"Andando","Med",102.0587,35.5128,86.7552,109.3273,-677.1136,-17.2477,12.9632,-43.9258
-0.3865,0.7901,-0.4961,-0.0094,0.0504,0.0425,-0.2155,0.5213,0.2407,-0.6105,-0.8415,1.1259,-0.0333,0.9236,0.382,-0.6015,0.2867,-0.7457,-0.7982,-0.2546,0.546,-0.183,-0.4399,0.5684,0.6707,"Andando","Med",102.0587,35.5128,86.7552,109.3273,-677.1136,-16.5667,13.1016,-43.9198
-0.3891,0.7724,-0.5028,-0.0092,0.0264,0.051,-0.2056,0.674,0.232,-0.6017,-0.8446,1.1274,-0.0287,0.9262,0.3759,-0.5998,0.2849,-0.7477,-0.7996,-0.2469,0.5474,-0.1865,-0.4376,0.5682,0.6715,"Andando","Med",102.0587,35.5128,86.7552,109.3273,-677.1136,-16.5667,13.1016,-43.9198
-0.4157,0.7716,-0.5516,-0.0427,0.0212,0.0082,-0.2558,0.8745,0.263,-0.5909,-0.8483,1.129,-0.0228,0.9294,0.3684,-0.5978,0.2827,-0.7502,-0.8013,-0.2373,0.5491,-0.1907,-0.4348,0.5677,0.6725,"Andando","Med",102.0587,35.5128,88.0198,110.1226,-677.3258,-15.8668,13.539,-44.1281
-0.4125,0.773,-0.5971,-0.0576,0.0195,-0.0388,-0.3196,1.0831,0.2806,-0.5787,-0.8525,1.13,-0.0152,0.9329,0.3599,-0.5952,0.2808,-0.7529,-0.8034,-0.2257,0.551,-0.1956,-0.4316,0.5669,0.6739,"Andando","Med",102.0587,35.5128,88.0198,110.1226,-677.3258,-15.8668,13.539,-44.1281
-0.3634,0.7787,-0.6164,-0.0236,0.0213,-0.062,-0.3679,1.1983,0.2647,-0.5667,-0.8569,1.1305,-0.0075,0.9362,0.3515,-0.5923,0.279,-0.7558,-0.8057,-0.2139,0.5524,-0.2006,-0.4284,0.5659,0.6753,"Andando","Med",102.0587,35.5128,88.0198,110.1226,-677.3258,-14.676,13.9,-44.3544
-0.311,0.7948,-0.6136,0.0241,0.0314,-0.0627,-0.4179,1.1401,0.2263,-0.5565,-0.8616,1.13,-2e-04,0.939,0.344,-0.589,0.2779,-0.7589,-0.8081,-0.2028,0.553,-0.2055,-0.4258,0.5647,0.6765,"Andando","Med",102.0587,35.5128,88.0198,110.1226,-677.3258,-14.676,13.9,-44.3544
-0.2748,0.8168,-0.5899,0.0569,0.0527,-0.0435,-0.457,0.9746,0.1843,-0.5487,-0.8662,1.1291,0.0055,0.9412,0.3379,-0.5856,0.2769,-0.7619,-0.8106,-0.1937,0.5527,-0.2097,-0.4239,0.5635,0.6773,"Andando","Med",102.0587,35.5128,89.7056,110.8666,-677.6201,-14.2112,14.17,-44.5327
-0.2547,0.8072,-0.5541,0.0759,0.0454,-0.0095,-0.4819,0.8052,0.1243,-0.5429,-0.8706,1.127,0.0109,0.9429,0.3329,-0.5819,0.2767,-0.7647,-0.8132,-0.1854,0.5517,-0.2136,-0.4225,0.5622,0.6781,"Andando","Med",102.0587,35.5128,89.7056,110.8666,-677.6201,-14.2112,14.17,-44.5327
-0.2583,0.7991,-0.5249,0.0723,0.0321,0.0206,-0.4839,0.7003,0.0805,-0.5383,-0.8748,1.1244,0.0157,0.9443,0.3287,-0.5783,0.2768,-0.7674,-0.8156,-0.178,0.5505,-0.2171,-0.4215,0.5608,0.6788,"Andando","Med",102.0587,35.5128,89.7056,110.8666,-677.6201,-13.1967,14.6239,-44.5914
-0.265,0.7993,-0.5047,0.0615,0.0293,0.0409,-0.4718,0.6561,0.0202,-0.5346,-0.8785,1.1209,0.021,0.9454,0.3252,-0.5748,0.2776,-0.7698,-0.8181,-0.1708,0.5492,-0.2203,-0.4205,0.5592,0.6797,"Andando","Med",102.0587,35.5128,89.7056,110.8666,-677.6201,-13.1967,14.6239,-44.5914
-0.2831,0.7966,-0.494,0.0443,0.0253,0.0529,-0.4649,0.6287,-0.0368,-0.5315,-0.8821,1.1171,0.0261,0.9463,0.3221,-0.5713,0.2786,-0.772,-0.8204,-0.1639,0.5479,-0.2234,-0.4197,0.5575,0.6805,"Andando","Med",102.0587,35.5128,91.1756,111.8842,-677.5559,-12.389,14.9461,-44.517
-0.3185,0.792,-0.4975,0.0086,0.0184,0.0507,-0.4581,0.6155,-0.0587,-0.5285,-0.8855,1.113,0.0315,0.9472,0.3191,-0.5678,0.2797,-0.7742,-0.8226,-0.1568,0.5466,-0.2265,-0.4188,0.5557,0.6815,"Andando","Med",102.0587,35.5128,91.1756,111.8842,-677.5559,-12.389,14.9461,-44.517
-0.3516,0.8058,-0.5041,-0.0313,0.0245,0.0422,-0.4473,0.6282,-0.0594,-0.525,-0.8887,1.1092,0.0371,0.9481,0.316,-0.5644,0.2808,-0.7763,-0.8247,-0.1496,0.5455,-0.2296,-0.4178,0.554,0.6825,"Andando","Med",102.0587,35.5128,91.1756,111.8842,-677.5559,-12.0099,15.4596,-44.6711
-0.3501,0.8225,-0.5067,-0.0404,0.0431,0.0389,-0.4298,0.7027,-0.0649,-0.5207,-0.8918,1.1052,0.0435,0.949,0.3124,-0.5611,0.2819,-0.7782,-0.8266,-0.1414,0.5448,-0.2328,-0.4164,0.5521,0.6838,"Andando","Med",102.0587,35.5128,91.1756,111.8842,-677.5559,-12.0099,15.4596,-44.6711
-0.3292,0.8223,-0.5257,-0.0255,0.0424,0.0248,-0.425,0.7737,-0.0757,-0.5162,-0.8949,1.1013,0.0501,0.9498,0.3088,-0.5579,0.283,-0.7801,-0.8284,-0.1332,0.5441,-0.2361,-0.415,0.5502,0.6851,"Andando","Med",102.0587,35.5128,92.1731,112.5267,-677.6213,-11.6195,15.7513,-44.5316
-0.3083,0.8073,-0.5542,-0.0051,0.0313,-0.009,-0.4141,0.7922,-0.0901,-0.5115,-0.8977,1.0973,0.0571,0.9506,0.3051,-0.5548,0.2843,-0.7819,-0.83,-0.1247,0.5437,-0.2393,-0.4134,0.5482,0.6865,"Andando","Med",102.0587,35.5128,92.1731,112.5267,-677.6213,-11.6195,15.7513,-44.5316
-0.3006,0.7827,-0.5462,-0.0013,0.0022,-0.0035,-0.383,0.7809,-0.098,-0.5074,-0.9002,1.0934,0.0635,0.9512,0.302,-0.552,0.2856,-0.7835,-0.8314,-0.1169,0.5432,-0.2423,-0.412,0.5464,0.6878,"Andando","Med",102.0587,35.5128,92.1731,112.5267,-677.6213,-10.9108,16.2261,-44.8771
-0.288,0.771,-0.5593,0.0105,-0.0109,-0.0135,-0.383,0.7128,-0.1325,-0.5042,-0.9026,1.0887,0.07,0.9516,0.2993,-0.549,0.2873,-0.7849,-0.8329,-0.1094,0.5425,-0.2451,-0.4107,0.5444,0.6891,"Andando","Med",102.0587,35.5128,92.1731,112.5267,-677.6213,-10.9108,16.2261,-44.8771
-0.2968,0.7547,-0.5728,0.003,-0.0287,-0.0286,-0.377,0.6564,-0.1608,-0.502,-0.9048,1.0839,0.0757,0.9518,0.2973,-0.5461,0.2891,-0.7863,-0.8343,-0.1028,0.5416,-0.2475,-0.4098,0.5424,0.6904,"Andando","Med",102.0587,35.5128,93.3832,113.0728,-677.591,-10.3512,16.9327,-44.8666
-0.3108,0.7444,-0.5917,-0.0111,-0.042,-0.0471,-0.3709,0.5653,-0.1808,-0.5012,-0.907,1.079,0.0806,0.9518,0.296,-0.5431,0.291,-0.7876,-0.8358,-0.0973,0.5404,-0.2496,-0.4093,0.5406,0.6914,"Andando","Med",102.0587,35.5128,93.3832,113.0728,-677.591,-9.9534,16.9062,-44.7928
-0.3301,0.7499,-0.6049,-0.031,-0.0418,-0.0651,-0.3816,0.4243,-0.1976,-0.5019,-0.9092,1.0735,0.0846,0.9516,0.2956,-0.54,0.2931,-0.789,-0.8374,-0.0929,0.5386,-0.2514,-0.4092,0.5387,0.6921,"Andando","Med",102.0587,35.5128,93.3832,113.0728,-677.591,-9.9534,16.9062,-44.7928
-0.3531,0.7717,-0.5978,-0.0516,-0.0235,-0.0644,-0.3896,0.2931,-0.1921,-0.5036,-0.9115,1.0685,0.0873,0.9513,0.2956,-0.5369,0.2949,-0.7904,-0.8391,-0.0897,0.5365,-0.2529,-0.4096,0.5372,0.6926,"Andando","Med",102.0587,35.5128,93.988,113.356,-677.6458,-9.7141,17.1975,-44.7167
-0.3817,0.7784,-0.5743,-0.0819,-0.0116,-0.0462,-0.3779,0.2121,-0.1652,-0.5059,-0.9138,1.0636,0.0895,0.951,0.2959,-0.5338,0.2967,-0.7919,-0.8408,-0.0871,0.5342,-0.2543,-0.4102,0.5357,0.6929,"Andando","Med",102.0587,35.5128,93.988,113.356,-677.6458,-9.7141,17.1975,-44.7167
-0.3734,0.7543,-0.5373,-0.0816,-0.0342,-0.0138,-0.3958,0.1365,-0.1528,-0.5088,-0.9165,1.0587,0.091,0.9507,0.2965,-0.5305,0.2982,-0.7935,-0.8428,-0.0851,0.5315,-0.2556,-0.411,0.5344,0.6929,"Andando","Med",102.0587,35.5128,93.988,113.356,-677.6458,-9.6679,17.6775,-44.4232
-0.3439,0.7492,-0.5003,-0.0536,-0.0469,0.0218,-0.43,0.0858,-0.1451,-0.5124,-0.9193,1.0534,0.0922,0.9503,0.2973,-0.527,0.2999,-0.7952,-0.8449,-0.0833,0.5285,-0.2568,-0.4121,0.533,0.6929,"Andando","Med",102.0587,35.5128,93.988,113.356,-677.6458,-9.6679,17.6775,-44.4232
-0.3036,0.7579,-0.478,-0.013,-0.0411,0.0437,-0.4314,0.0498,-0.1516,-0.5164,-0.9221,1.0482,0.0932,0.9499,0.2983,-0.5235,0.3016,-0.7969,-0.8469,-0.0819,0.5254,-0.258,-0.4132,0.5317,0.6928,"Andando","Med",102.0587,35.5128,94.7208,113.3086,-677.2474,-9.2657,17.9543,-44.3577
-0.2727,0.7679,-0.462,0.0213,-0.0319,0.0575,-0.4237,-0.0136,-0.1481,-0.5211,-0.9248,1.043,0.0934,0.9495,0.2997,-0.5201,0.3032,-0.7985,-0.849,-0.0813,0.5221,-0.2589,-0.4147,0.5305,0.6926,"Andando","Med",102.0587,35.5128,94.7208,113.3086,-677.2474,-9.2657,17.9543,-44.3577
-0.2459,0.7732,-0.4399,0.0503,-0.0281,0.0728,-0.4169,-0.0947,-0.1455,-0.5264,-0.9274,1.0378,0.093,0.9489,0.3014,-0.5167,0.3048,-0.8001,-0.8511,-0.0813,0.5187,-0.2596,-0.4163,0.5293,0.6922,"Andando","Med",102.0587,35.5128,94.7208,113.3086,-677.2474,-9.6625,18.5374,-44.3163
-0.2274,0.7782,-0.4085,0.0733,-0.0237,0.1013,-0.3925,-0.1304,-0.139,-0.5316,-0.9297,1.0331,0.0925,0.9484,0.3032,-0.5137,0.3063,-0.8015,-0.853,-0.0816,0.5155,-0.2601,-0.4178,0.5284,0.6918,"Andando","Med",102.0587,35.5128,94.7208,113.3086,-677.2474,-9.6625,18.5374,-44.3163
-0.2232,0.7767,-0.3916,0.0815,-0.026,0.1192,-0.3567,-0.1414,-0.1287,-0.5363,-0.9318,1.0289,0.092,0.948,0.3047,-0.5109,0.3076,-0.8027,-0.8547,-0.0819,0.5126,-0.2606,-0.4192,0.5275,0.6914,"Andando","Med",102.0587,35.5128,94.6853,113.9781,-677.0419,-9.721,18.9318,-44.0415
-0.2237,0.7824,-0.3905,0.0815,-0.0234,0.1207,-0.3201,-0.1069,-0.1034,-0.5403,-0.9338,1.0252,0.0915,0.9476,0.3059,-0.5085,0.3086,-0.8039,-0.8562,-0.082,0.5101,-0.2612,-0.4204,0.5268,0.6911,"Andando","Med",102.0595,35.4441,94.6853,113.9781,-677.0419,-9.721,18.9318,-44.0415
-0.221,0.7912,-0.4104,0.0864,-0.0146,0.1025,-0.3026,-0.0939,-0.0812,-0.5439,-0.9356,1.0218,0.0912,0.9473,0.307,-0.5061,0.3096,-0.805,-0.8576,-0.082,0.5077,-0.2617,-0.4215,0.5261,0.6907,"Andando","Med",102.0595,35.4441,94.6853,113.9781,-677.0419,-9.9388,19.0989,-44.0328
-0.2207,0.7874,-0.4259,0.0869,-0.0173,0.0807,-0.2733,-0.084,-0.0851,-0.5473,-0.9371,1.0188,0.0907,0.947,0.3081,-0.5041,0.3105,-0.8059,-0.8588,-0.0822,0.5056,-0.262,-0.4225,0.5254,0.6904,"Andando","Med",102.0595,35.4441,94.6853,113.9781,-677.0419,-9.9388,19.0989,-44.0328
-0.2273,0.7936,-0.4185,0.0845,-0.0169,0.0827,-0.2358,-0.0903,-0.0794,-0.5502,-0.9383,1.0162,0.0903,0.9467,0.3091,-0.5025,0.3113,-0.8066,-0.8598,-0.0825,0.5039,-0.2623,-0.4234,0.5249,0.6902,"Andando","Med",102.0595,35.4441,94.4217,114.0137,-676.8057,-9.9645,19.1432,-43.75
-0.2427,0.824,-0.3979,0.0698,0.0106,0.1005,-0.1836,-0.0731,-0.0694,-0.5525,-0.9391,1.0142,0.0901,0.9465,0.3099,-0.5013,0.312,-0.8071,-0.8605,-0.0827,0.5026,-0.2624,-0.4241,0.5246,0.69,"Andando","Med",102.0595,35.4441,94.4217,114.0137,-676.8057,-9.9645,19.1432,-43.75
-0.2472,0.8458,-0.3869,0.0637,0.0358,0.1143,-0.1475,-0.049,-0.0662,-0.5545,-0.9397,1.0121,0.0901,0.9462,0.3107,-0.5004,0.3128,-0.8074,-0.8611,-0.0827,0.5016,-0.2626,-0.4246,0.5241,0.69,"Andando","Med",102.0595,35.4441,94.4217,114.0137,-676.8057,-10.159,19.4208,-43.7002
-0.2259,0.8441,-0.4094,0.0891,0.0354,0.0952,-0.0802,0.025,-0.1207,-0.5582,-0.9385,1.0058,0.0932,0.9452,0.313,-0.4991,0.3164,-0.8067,-0.8615,-0.0811,0.5013,-0.2625,-0.4248,0.5224,0.6912,"Andando","Med",102.0595,35.4441,94.4217,114.0137,-676.8057,-10.409,19.5549,-43.541
-0.2259,0.8441,-0.4094,0.0798,0.0436,0.0735,-0.0802,0.025,-0.1207,-0.5584,-0.9381,1.0048,0.0941,0.945,0.3133,-0.4992,0.3171,-0.8064,-0.8614,-0.0805,0.5015,-0.2624,-0.4247,0.5221,0.6915,"Andando","Med",102.0595,35.4441,94.5067,114.4806,-676.761,-10.5179,19.3081,-43.5941
-0.234,0.8515,-0.4334,0.0801,0.0439,0.0739,-0.0198,0.1991,-0.1907,-0.5584,-0.9375,1.0037,0.0954,0.9448,0.3136,-0.4991,0.3179,-0.8061,-0.8613,-0.0796,0.5019,-0.2625,-0.4245,0.5217,0.6919,"Andando","Med",102.0595,35.4441,94.5067,114.4806,-676.761,-10.5179,19.3081,-43.5941
-0.2244,0.8484,-0.4606,0.09,0.03,0.0213,-0.0198,0.1991,-0.1907,-0.5584,-0.9361,0.9997,0.0995,0.9441,0.3142,-0.4989,0.3205,-0.8052,-0.8609,-0.0766,0.5029,-0.2627,-0.4237,0.5203,0.6934,"Andando","Med",102.0595,35.4441,94.5067,114.4806,-676.761,-10.1322,19.2791,-43.6232
-0.2281,0.8324,-0.486,0.0902,0.0303,0.0215,-0.0596,0.2314,-0.1896,-0.5583,-0.9357,0.9983,0.101,0.9439,0.3143,-0.4987,0.3214,-0.805,-0.8609,-0.0755,0.5032,-0.2629,-0.4234,0.5198,0.6938,"Andando","Med",102.0595,35.4441,94.5067,114.4806,-676.761,-10.1322,19.2791,-43.6232
-0.2281,0.8324,-0.486,0.0673,0.0127,0.0079,-0.0596,0.2314,-0.1896,-0.5583,-0.9357,0.9969,0.1023,0.9438,0.3143,-0.4982,0.3221,-0.805,-0.861,-0.0742,0.5032,-0.2632,-0.4233,0.5193,0.6942,"Andando","Med",102.0595,35.4441,94.5303,114.6185,-676.6445,-10.1322,19.2791,-43.6232
-0.2496,0.8116,-0.4947,0.0675,0.0128,0.008,-0.0896,0.205,-0.1912,-0.5585,-0.9354,0.9952,0.1038,0.9436,0.3145,-0.4979,0.3231,-0.8048,-0.861,-0.073,0.5033,-0.2634,-0.4231,0.5188,0.6947,"Andando","Med",102.0595,35.4441,94.5303,114.6185,-676.6445,-9.8446,19.2365,-43.7659
-0.2552,0.7674,-0.4841,0.0612,-0.0281,0.0167,-0.0896,0.205,-0.1912,-0.5591,-0.9355,0.9921,0.1062,0.9432,0.3148,-0.4968,0.3246,-0.8049,-0.8613,-0.0709,0.5031,-0.2639,-0.4229,0.5178,0.6953,"Andando","Med",102.0595,35.4441,94.5303,114.6185,-676.6445,-9.8446,19.2365,-43.7659
-0.2737,0.7342,-0.4755,0.045,-0.0669,0.0255,-0.1181,0.192,-0.1659,-0.5596,-0.936,0.9889,0.1086,0.9429,0.3148,-0.4954,0.3259,-0.8052,-0.8618,-0.0685,0.5025,-0.2647,-0.4227,0.5167,0.6959,"Andando","Med",102.0595,35.4441,95.1511,114.976,-676.7954,-9.692,19.5521,-43.5622
-0.2833,0.7236,-0.4731,0.0319,-0.0804,0.0292,-0.1479,0.1852,-0.1363,-0.5599,-0.9369,0.9863,0.1106,0.9428,0.3146,-0.494,0.3268,-0.8057,-0.8624,-0.0663,0.5019,-0.2655,-0.4226,0.5159,0.6963,"Andando","Med",102.0595,35.4441,95.1511,114.976,-676.7954,-9.692,19.5521,-43.5622
-0.2751,0.7166,-0.472,0.0415,-0.0837,0.044,-0.1299,0.0957,-0.0757,-0.5605,-0.9392,0.9813,0.1142,0.9426,0.3139,-0.4908,0.3282,-0.8071,-0.8638,-0.0618,0.5001,-0.2674,-0.4225,0.5142,0.6969,"Andando","Med",102.0595,35.4441,95.1511,114.976,-676.7954,-9.5828,19.2153,-43.6465
-0.2715,0.7274,-0.452,0.0447,-0.0654,0.0609,-0.12,0.0667,-0.0679,-0.5609,-0.9399,0.9799,0.1151,0.9425,0.3138,-0.4899,0.3286,-0.8075,-0.8642,-0.0608,0.4995,-0.2678,-0.4225,0.5138,0.697,"Andando","Med",102.0595,35.4441,95.1511,114.976,-676.7954,-9.5423,19.3061,-43.926
-0.2778,0.7686,-0.4296,0.0361,-0.0508,0.0617,-0.1608,0.1413,-0.023,-0.5623,-0.9439,0.9722,0.12,0.9422,0.3128,-0.4847,0.3306,-0.8098,-0.8664,-0.0544,0.4963,-0.2707,-0.4226,0.5113,0.6977,"Andando","Med",102.0595,35.4441,94.852,115.7739,-676.883,-9.1379,19.018,-43.6328
-0.2768,0.757,-0.4357,0.0359,-0.0606,0.0598,-0.1425,0.1414,-0.0017,-0.5616,-0.9448,0.9714,0.1212,0.9423,0.312,-0.4838,0.3306,-0.8104,-0.8668,-0.0527,0.4959,-0.2714,-0.4223,0.5109,0.6978,"Andando","Med",102.0595,35.4441,94.852,115.7739,-676.883,-9.1379,19.018,-43.6328
-0.2756,0.748,-0.4352,0.0355,-0.0608,0.0597,-0.1119,0.1472,0.019,-0.5611,-0.9452,0.9711,0.1218,0.9424,0.3116,-0.4834,0.3305,-0.8106,-0.8669,-0.0519,0.4958,-0.2718,-0.4222,0.5108,0.6979,"Andando","Med",102.0595,35.4441,94.852,115.7739,-676.883,-9.1379,19.018,-43.6328
-0.2756,0.748,-0.4352,0.0383,-0.0707,0.0648,-0.1119,0.1472,0.019,-0.5604,-0.9456,0.971,0.1224,0.9425,0.3111,-0.4831,0.3304,-0.8108,-0.867,-0.0511,0.4957,-0.2721,-0.422,0.5106,0.6979,"Andando","Med",102.0595,35.4441,94.852,115.7739,-676.883,-8.9619,19.2051,-43.7357
-0.2721,0.7381,-0.4304,0.0377,-0.0709,0.0648,-0.0747,0.1617,0.0386,-0.5596,-0.9459,0.9711,0.1229,0.9426,0.3105,-0.4829,0.3302,-0.811,-0.867,-0.0503,0.4958,-0.2725,-0.4217,0.5106,0.698,"Andando","Med",102.0595,35.4441,94.7302,115.8866,-676.9283,-8.9619,19.2051,-43.7357
-0.2721,0.7381,-0.4304,0.0414,-0.0807,0.0625,-0.0747,0.1617,0.0386,-0.5586,-0.9462,0.9713,0.1235,0.9427,0.3099,-0.4828,0.3299,-0.8112,-0.867,-0.0494,0.4959,-0.2728,-0.4215,0.5105,0.6981,"Andando","Med",102.0595,35.4441,94.7302,115.8866,-676.9283,-8.9619,19.2051,-43.7357
-0.2721,0.7381,-0.4304,0.0414,-0.0807,0.0625,-0.0747,0.1617,0.0386,-0.5586,-0.9462,0.9713,0.1235,0.9427,0.3099,-0.4828,0.3299,-0.8112,-0.867,-0.0494,0.4959,-0.2728,-0.4215,0.5105,0.6981,"Andando","Med",102.0595,35.4441,94.7302,115.8866,-676.9283,-8.9619,19.2051,-43.7357
-0.2673,0.7289,-0.4354,0.0407,-0.0808,0.0626,-0.0515,0.1708,0.0585,-0.5575,-0.9465,0.9717,0.124,0.9429,0.3092,-0.4827,0.3296,-0.8114,-0.8669,-0.0486,0.496,-0.2731,-0.4212,0.5105,0.6982,"Andando","Med",102.0595,35.4441,94.7302,115.8866,-676.9283,-8.9619,19.2051,-43.7357
-0.2673,0.7289,-0.4354,0.0446,-0.0854,0.0473,-0.0515,0.1708,0.0585,-0.5563,-0.9468,0.9721,0.1246,0.943,0.3085,-0.4827,0.3293,-0.8116,-0.8669,-0.0478,0.4962,-0.2735,-0.4209,0.5105,0.6982,"Andando","Med",102.0595,35.4441,94.7302,115.8866,-676.9283,-8.9506,19.1959,-43.7538
-0.2638,0.7267,-0.4532,0.0439,-0.0855,0.0475,-0.0402,0.1579,0.0785,-0.5551,-0.9471,0.9727,0.1251,0.9432,0.3078,-0.4827,0.3289,-0.8117,-0.8668,-0.0471,0.4964,-0.2738,-0.4205,0.5105,0.6983,"Andando","Med",102.0595,35.4441,94.7302,115.8866,-676.9283,-8.9506,19.1959,-43.7538
-0.2638,0.7267,-0.4532,0.0383,-0.0778,0.026,-0.0402,0.1579,0.0785,-0.5538,-0.9474,0.9733,0.1255,0.9434,0.3071,-0.4827,0.3284,-0.8119,-0.8668,-0.0463,0.4966,-0.2741,-0.4202,0.5105,0.6983,"Andando","Med",102.0595,35.4441,94.7302,115.8866,-676.9283,-8.9506,19.1959,-43.7538
-0.2702,0.7363,-0.4745,0.0376,-0.078,0.0263,-0.0402,0.1579,0.0785,-0.5525,-0.9476,0.974,0.1258,0.9436,0.3063,-0.4827,0.328,-0.812,-0.8667,-0.0457,0.4968,-0.2744,-0.4199,0.5106,0.6983,"Andando","Med",102.0595,35.4441,94.7302,115.8866,-676.9283,-8.9506,19.1959,-43.7538
-0.2759,0.7434,-0.49,0.03,-0.0699,0.0096,-0.033,0.1414,0.0914,-0.5501,-0.9483,0.9755,0.1264,0.944,0.3048,-0.4828,0.327,-0.8124,-0.8666,-0.0445,0.4971,-0.2749,-0.4194,0.5108,0.6983,"Andando","Med",102.0595,35.4441,94.9236,116.0768,-676.6302,-8.8093,19.4375,-43.6959
-0.2928,0.7568,-0.5083,0.0164,-0.0614,-0.006,-0.04,0.1112,0.0991,-0.5477,-0.949,0.9772,0.1266,0.9444,0.3033,-0.4829,0.3258,-0.8128,-0.8665,-0.0435,0.4973,-0.2755,-0.4189,0.5111,0.6982,"Andando","Med",102.0595,35.4441,94.9236,116.0768,-676.6302,-8.8093,19.4375,-43.6959
-0.3222,0.7796,-0.5326,-0.0165,-0.0344,-0.0317,-0.0319,0.1149,0.1261,-0.5456,-0.9496,0.979,0.1266,0.9449,0.302,-0.483,0.3247,-0.8132,-0.8664,-0.0429,0.4975,-0.2759,-0.4185,0.5114,0.698,"Andando","Med",102.0595,35.4441,94.9236,116.0768,-676.6302,-8.5016,19.4956,-43.7463
-0.3761,0.9112,-0.5366,-0.0726,0.0893,-0.0415,-0.0243,0.0121,0.1052,-0.5412,-0.951,0.9846,0.1248,0.946,0.2993,-0.4839,0.3214,-0.814,-0.8662,-0.0432,0.4979,-0.2764,-0.4179,0.5128,0.6971,"Andando","Med",102.0595,35.4441,94.9236,116.0768,-676.6302,-8.4065,19.3046,-43.8892
-0.3642,0.8505,-0.5387,-0.0721,0.0476,-0.0461,0.0434,0.0125,-0.0599,-0.5414,-0.9499,0.9848,0.1247,0.9458,0.2998,-0.4847,0.3217,-0.8134,-0.8657,-0.0439,0.4986,-0.2759,-0.4179,0.5129,0.6973,"Andando","Med",102.0595,35.4441,95.0986,116.0829,-676.6786,-8.7093,19.2881,-43.7556
-0.3642,0.8505,-0.5387,-0.0474,0.0274,0.0066,0.0434,0.0125,-0.0599,-0.5411,-0.9492,0.9849,0.125,0.9457,0.3,-0.4852,0.322,-0.8129,-0.8654,-0.0439,0.4991,-0.2756,-0.4177,0.5129,0.6975,"Andando","Med",102.0595,35.4441,95.0986,116.0829,-676.6786,-8.7093,19.2881,-43.7556
-0.349,0.8465,-0.4791,-0.0474,0.0279,0.0073,0.1309,0.1235,-0.0719,-0.5405,-0.9484,0.9851,0.1255,0.9456,0.3,-0.4858,0.3223,-0.8125,-0.865,-0.0437,0.4999,-0.2754,-0.4174,0.5129,0.6978,"Andando","Med",102.0595,35.4441,95.0986,116.0829,-676.6786,-8.4694,19.269,-43.8643
-0.349,0.8465,-0.4791,-0.0598,0.052,0.0608,0.1309,0.1235,-0.0719,-0.5397,-0.9474,0.9854,0.1262,0.9455,0.3,-0.4866,0.3226,-0.8119,-0.8645,-0.0435,0.5008,-0.2752,-0.417,0.5128,0.6981,"Andando","Med",102.0595,35.4441,95.0986,116.0829,-676.6786,-8.4694,19.269,-43.8643
-0.3619,0.8607,-0.4373,-0.0599,0.0526,0.0616,0.1342,0.0889,-0.0665,-0.5389,-0.9465,0.9857,0.1268,0.9455,0.3,-0.4873,0.3228,-0.8114,-0.864,-0.0433,0.5017,-0.2749,-0.4166,0.5128,0.6985,"Andando","Med",102.0595,35.4441,95.0986,116.0829,-676.6786,-8.4694,19.269,-43.8643
-0.3619,0.8607,-0.4373,-0.0658,0.01,0.0484,0.1342,0.0889,-0.0665,-0.5385,-0.9454,0.986,0.1273,0.9453,0.3002,-0.4881,0.3232,-0.8108,-0.8635,-0.0433,0.5026,-0.2746,-0.4163,0.5129,0.6987,"Andando","Med",102.0595,35.4441,95.0986,116.0829,-676.6786,-8.4694,19.269,-43.8643
-0.3597,0.7536,-0.4789,-0.0675,-0.0797,0.0251,0.1667,0.049,0.0203,-0.5351,-0.9419,0.989,0.1281,0.9453,0.3,-0.4914,0.3232,-0.8087,-0.8614,-0.0438,0.506,-0.2734,-0.4151,0.5135,0.6995,"Andando","Med",102.0595,35.4441,95.0986,116.0829,-676.6786,-8.5722,19.4565,-44.0248
-0.3732,0.7287,-0.482,-0.0867,-0.0758,0.0289,0.2281,0.0984,0.0358,-0.5321,-0.94,0.9919,0.1285,0.9455,0.2992,-0.4937,0.3227,-0.8075,-0.8601,-0.0439,0.5083,-0.2727,-0.4141,0.5141,0.6999,"Andando","Med",102.0595,35.4441,95.263,115.5315,-676.7439,-8.4271,19.1998,-43.9496
-0.3814,0.7288,-0.477,-0.0873,-0.0752,0.0302,0.2281,0.0984,0.0358,-0.5301,-0.9388,0.9937,0.1288,0.9456,0.2987,-0.495,0.3223,-0.8069,-0.8593,-0.0439,0.5096,-0.2724,-0.4135,0.5144,0.7001,"Andando","Med",102.0595,35.4441,95.263,115.5315,-676.7439,-8.4271,19.1998,-43.9496
-0.3355,0.7209,-0.473,-0.0472,-0.0868,0.041,0.2702,0.1105,0.0686,-0.5262,-0.9367,0.9974,0.1292,0.9459,0.2975,-0.4977,0.3214,-0.8056,-0.8577,-0.044,0.5123,-0.2718,-0.4123,0.5152,0.7005,"Andando","Med",102.0595,35.4441,95.263,115.5315,-676.7439,-8.4037,18.7757,-44.1586
-0.3355,0.7209,-0.473,-0.013,-0.0632,0.0193,0.2567,0.1126,0.0991,-0.5243,-0.9357,0.9992,0.1294,0.9461,0.297,-0.4989,0.3209,-0.805,-0.8569,-0.044,0.5136,-0.2715,-0.4117,0.5156,0.7007,"Andando","Med",102.0595,35.4441,95.263,115.5315,-676.7439,-8.4037,18.7757,-44.1586
-0.3069,0.747,-0.5014,-0.0094,-0.0436,-0.0125,0.2335,0.1015,0.1172,-0.5203,-0.9341,1.0032,0.1294,0.9465,0.2956,-0.5013,0.3196,-0.8041,-0.8555,-0.0442,0.5159,-0.2711,-0.4106,0.5164,0.7009,"Andando","Med",102.0595,35.4441,95.4786,114.7402,-676.8681,-8.4967,18.8073,-44.218
-0.306,0.762,-0.5341,-0.0102,-0.0432,-0.0114,0.2136,0.0829,0.1206,-0.5183,-0.9333,1.0052,0.1294,0.9467,0.2949,-0.5025,0.319,-0.8036,-0.8548,-0.0442,0.517,-0.2709,-0.41,0.5169,0.701,"Andando","Med",102.0595,35.4441,95.4786,114.7402,-676.8681,-8.4967,18.8073,-44.218
-0.306,0.762,-0.5341,-0.0116,-0.0438,-0.0321,0.2136,0.0829,0.1206,-0.5168,-0.9328,1.0068,0.1293,0.9469,0.2943,-0.5034,0.3184,-0.8033,-0.8543,-0.0443,0.5178,-0.2707,-0.4097,0.5172,0.701,"Andando","Med",102.0595,35.4441,95.4786,114.7402,-676.8681,-8.4967,18.8073,-44.218
-0.3034,0.7569,-0.5512,0.0094,-0.0599,-0.0289,0.1938,0.0702,0.1387,-0.5134,-0.9316,1.0107,0.1289,0.9474,0.293,-0.5054,0.317,-0.8026,-0.8532,-0.0447,0.5197,-0.2703,-0.4088,0.5181,0.701,"Andando","Med",102.0595,35.4441,95.4786,114.7402,-676.8681,-8.4479,18.4726,-44.3078
-0.2779,0.7398,-0.547,0.0306,-0.0662,-0.0222,0.1938,0.0702,0.1387,-0.5099,-0.9306,1.0148,0.1282,0.9479,0.2915,-0.5074,0.3153,-0.802,-0.8521,-0.0451,0.5214,-0.27,-0.4079,0.5191,0.7009,"Andando","Med",102.0595,35.4441,95.6456,114.2102,-677.2433,-8.4479,18.4726,-44.3078
-0.273,0.7378,-0.5383,-0.0073,-0.0708,0.0028,0.1986,0.0355,0.22,-0.5025,-0.9285,1.0239,0.1264,0.9491,0.2885,-0.5116,0.3115,-0.8007,-0.8499,-0.0464,0.525,-0.2692,-0.4062,0.5213,0.7005,"Andando","Med",102.0595,35.4441,95.6456,114.2102,-677.2433,-7.9764,18.3608,-44.5424
-0.3021,0.7274,-0.5183,-0.0084,-0.0705,0.0039,0.2279,0.0497,0.2376,-0.5,-0.928,1.0267,0.126,0.9495,0.2874,-0.5129,0.3103,-0.8004,-0.8492,-0.0466,0.526,-0.2691,-0.4057,0.522,0.7004,"Andando","Med",102.0595,35.4441,95.6456,114.2102,-677.2433,-7.9764,18.3608,-44.5424
-0.3021,0.7274,-0.5183,-0.0381,-0.0748,0.0145,0.2279,0.0497,0.2376,-0.4982,-0.9272,1.0289,0.1255,0.9498,0.2867,-0.5141,0.3095,-0.8,-0.8485,-0.047,0.5271,-0.2688,-0.4052,0.5225,0.7004,"Andando","Med",102.0595,35.4441,95.6456,114.2102,-677.2433,-8.0431,18.4158,-44.4537
-0.3274,0.7268,-0.5134,-0.0392,-0.0744,0.0156,0.2449,0.0379,0.2443,-0.4956,-0.9266,1.0319,0.125,0.9502,0.2856,-0.5154,0.3082,-0.7996,-0.8478,-0.0472,0.5283,-0.2686,-0.4046,0.5232,0.7003,"Andando","Med",102.0595,35.4441,96.2325,113.538,-677.4896,-8.0431,18.4158,-44.4537
-0.3156,0.7502,-0.5171,-0.036,-0.0555,0.0133,0.2449,0.0379,0.2443,-0.4907,-0.9254,1.0378,0.1239,0.9509,0.2835,-0.5181,0.3056,-0.7988,-0.8463,-0.0479,0.5306,-0.2682,-0.4035,0.5247,0.7,"Andando","Med",102.0595,35.4441,96.2325,113.538,-677.4896,-8.0431,18.4158,-44.4537
-0.3078,0.7878,-0.5119,-0.0264,-0.0174,0.019,0.2506,0.008,0.2418,-0.4861,-0.924,1.0438,0.1224,0.9517,0.2815,-0.5209,0.3031,-0.798,-0.8448,-0.0489,0.5328,-0.2676,-0.4024,0.5261,0.6997,"Andando","Med",102.0595,35.4441,96.2325,113.538,-677.4896,-8.1855,18.3602,-44.2857
-0.3089,0.8209,-0.5006,-0.0291,0.0167,0.0324,0.2505,-0.0027,0.2331,-0.4816,-0.9227,1.0494,0.1212,0.9524,0.2797,-0.5235,0.3007,-0.7972,-0.8434,-0.0497,0.535,-0.2672,-0.4014,0.5275,0.6995,"Andando","Med",102.0595,35.4441,96.2325,113.538,-677.4896,-8.1855,18.3602,-44.2857
-0.3067,0.8577,-0.5008,-0.0299,0.0545,0.0379,0.2262,0.026,0.2168,-0.4773,-0.9216,1.0544,0.1204,0.9531,0.2777,-0.5257,0.2985,-0.7966,-0.8421,-0.0501,0.537,-0.2669,-0.4004,0.5287,0.6993,"Andando","Med",102.0595,35.4441,96.4048,113.4274,-677.3308,-8.2407,18.2592,-44.4087
-0.2994,0.8813,-0.5156,-0.0254,0.0808,0.0262,0.17,0.0612,0.1943,-0.4734,-0.921,1.0585,0.1199,0.9537,0.2758,-0.5273,0.2966,-0.7962,-0.8411,-0.05,0.5385,-0.2668,-0.3994,0.5296,0.6991,"Andando","Med",102.0595,35.4441,96.4048,113.4274,-677.3308,-8.1301,18.205,-44.628
-0.2923,0.9054,-0.5313,-0.0191,0.1041,0.0113,0.0908,0.0955,0.1682,-0.4699,-0.921,1.0614,0.12,0.9542,0.274,-0.5282,0.295,-0.7962,-0.8406,-0.0492,0.5394,-0.2672,-0.3986,0.5302,0.699,"Andando","Med",102.0595,35.4441,96.4048,113.4274,-677.3308,-8.1301,18.205,-44.628
-0.2976,0.9262,-0.5467,-0.0241,0.1269,-0.0039,0.001,0.1328,0.1377,-0.4669,-0.9217,1.0632,0.1206,0.9547,0.2721,-0.5283,0.2938,-0.7966,-0.8405,-0.0476,0.5398,-0.2679,-0.3979,0.5304,0.699,"Andando","Med",102.0595,35.4441,96.9171,113.2214,-677.7653,-7.8729,18.0879,-44.5255
-0.2927,0.9261,-0.5517,-0.0245,0.1302,-0.0125,-0.0807,0.1864,0.0993,-0.4644,-0.9228,1.0639,0.1218,0.955,0.2703,-0.5277,0.293,-0.7973,-0.8407,-0.0455,0.5397,-0.2689,-0.3973,0.5303,0.699,"Andando","Med",102.0595,35.4441,96.9171,113.2214,-677.7653,-7.8729,18.0879,-44.5255
-0.2917,0.9212,-0.5415,-0.0219,0.1241,-0.0054,-0.148,0.2091,0.0571,-0.4627,-0.9243,1.0635,0.1233,0.9552,0.2689,-0.5265,0.2926,-0.7982,-0.8412,-0.0432,0.539,-0.27,-0.397,0.5299,0.6991,"Andando","Med",102.0595,35.4441,96.9171,113.2214,-677.7653,-7.7103,18.0244,-44.6458
-0.2931,0.908,-0.526,-0.0256,0.1119,0.0088,-0.2061,0.1935,0.016,-0.4622,-0.9262,1.0621,0.1246,0.9553,0.2679,-0.5248,0.2926,-0.7993,-0.842,-0.041,0.5379,-0.2712,-0.3969,0.5293,0.6991,"Andando","Med",102.0595,35.4441,96.9171,113.2214,-677.7653,-7.7103,18.0244,-44.6458
-0.2964,0.8889,-0.5085,-0.0274,0.0932,0.0234,-0.2592,0.1466,-0.0155,-0.4625,-0.9283,1.0601,0.1258,0.9554,0.2674,-0.5228,0.2929,-0.8006,-0.8431,-0.0391,0.5363,-0.2723,-0.3971,0.5286,0.6991,"Andando","Med",102.0595,35.4441,97.1759,113.0939,-678.0088,-7.4959,17.9998,-44.5475
-0.3113,0.8539,-0.4765,-0.0408,0.0599,0.0505,-0.2823,0.1444,-0.0357,-0.4627,-0.9303,1.0578,0.1273,0.9553,0.2668,-0.5207,0.2933,-0.8018,-0.8442,-0.0368,0.5348,-0.2735,-0.3972,0.5278,0.6992,"Andando","Med",102.0595,35.4441,97.1759,113.0939,-678.0088,-7.4959,17.9998,-44.5475
-0.3278,0.8153,-0.4365,-0.06,0.0202,0.0896,-0.2609,0.194,-0.0467,-0.4622,-0.932,1.0557,0.1294,0.9553,0.2659,-0.5189,0.2937,-0.8028,-0.845,-0.0341,0.5337,-0.2748,-0.3971,0.5269,0.6994,"Andando","Med",102.0595,35.4441,97.1759,113.0939,-678.0088,-7.3992,18.2754,-44.4778
-0.3225,0.7789,-0.4122,-0.0607,-0.018,0.1178,-0.2169,0.2619,-0.0441,-0.4607,-0.9333,1.0541,0.1319,0.9553,0.2646,-0.5175,0.2941,-0.8036,-0.8455,-0.0309,0.5332,-0.276,-0.3965,0.5261,0.6999,"Andando","Med",102.0595,35.4441,97.1759,113.0939,-678.0088,-7.3992,18.2754,-44.4778
-0.3038,0.7521,-0.4062,-0.0442,-0.0473,0.1265,-0.165,0.3066,-0.0341,-0.4585,-0.9342,1.0529,0.1347,0.9553,0.2631,-0.5165,0.2943,-0.8041,-0.8456,-0.0276,0.5331,-0.2772,-0.3958,0.5254,0.7004,"Andando","Med",102.0595,35.4441,97.6887,113.8999,-678.0238,-7.0197,18.1688,-44.5887
-0.2895,0.7319,-0.4057,-0.0302,-0.0695,0.1275,-0.1196,0.3167,-0.0194,-0.4559,-0.9348,1.0524,0.1372,0.9554,0.2615,-0.516,0.2943,-0.8045,-0.8455,-0.0245,0.5333,-0.2782,-0.3949,0.5248,0.7009,"Andando","Med",102.0595,35.4441,97.6887,113.8999,-678.0238,-7.0197,18.1688,-44.5887
-0.2792,0.722,-0.4023,-0.0218,-0.081,0.1305,-0.0791,0.2978,0.0038,-0.4528,-0.9352,1.0526,0.1396,0.9555,0.2597,-0.5157,0.2941,-0.8047,-0.8453,-0.0216,0.5338,-0.2792,-0.3939,0.5244,0.7013,"Andando","Med",102.0595,35.4441,97.6887,113.8999,-678.0238,-6.7938,18.2456,-44.604
-0.2688,0.7141,-0.3968,-0.0131,-0.0898,0.137,-0.0488,0.2918,0.0403,-0.449,-0.9356,1.0536,0.1418,0.9558,0.2575,-0.5158,0.2934,-0.8049,-0.8449,-0.0187,0.5346,-0.2801,-0.3928,0.5243,0.7017,"Andando","Med",102.0595,35.4441,97.6887,113.8999,-678.0238,-6.7938,18.2456,-44.604
-0.2613,0.7175,-0.3985,-0.0074,-0.09,0.1382,-0.0297,0.3184,0.0806,-0.4443,-0.936,1.0553,0.144,0.9562,0.2549,-0.5159,0.2923,-0.8052,-0.8444,-0.0156,0.5354,-0.2812,-0.3914,0.5242,0.7021,"Andando","Med",102.0595,35.4441,97.922,114.1037,-677.7717,-6.387,18.323,-44.6519
-0.2605,0.7401,-0.4132,-0.0083,-0.0708,0.1271,-0.0311,0.3442,0.127,-0.4389,-0.9367,1.0576,0.1462,0.9567,0.2517,-0.5161,0.2909,-0.8056,-0.8439,-0.0121,0.5363,-0.2824,-0.39,0.5242,0.7024,"Andando","Med",102.0595,35.4441,97.922,114.1037,-677.7717,-6.387,18.323,-44.6519
-0.2687,0.769,-0.4317,-0.0182,-0.0432,0.1084,-0.0481,0.3779,0.1613,-0.4328,-0.9377,1.0602,0.1486,0.9573,0.2481,-0.5162,0.2891,-0.8062,-0.8435,-0.0083,0.5371,-0.2839,-0.3884,0.5243,0.7026,"Andando","Med",102.0595,35.4441,97.922,114.1037,-677.7717,-6.221,18.1667,-44.6597
-0.2772,0.8038,-0.4483,-0.032,-0.0105,0.0935,-0.069,0.4116,0.1843,-0.4265,-0.939,1.0629,0.1511,0.9578,0.2444,-0.516,0.2873,-0.807,-0.8431,-0.0042,0.5377,-0.2855,-0.3868,0.5242,0.7029,"Andando","Med",102.0595,35.4441,97.922,114.1037,-677.7717,-6.221,18.1667,-44.6597
-0.2759,0.836,-0.4707,-0.0364,0.0227,0.0719,-0.0914,0.4267,0.186,-0.4203,-0.9404,1.0654,0.1536,0.9584,0.2405,-0.5158,0.2854,-0.8078,-0.8428,1e-04,0.5382,-0.2873,-0.3852,0.5242,0.7031,"Andando","Med",102.0595,35.4441,98.5379,114.5343,-678.0051,-5.7625,18.196,-44.8439
-0.2733,0.8525,-0.4894,-0.0366,0.0418,0.0524,-0.1168,0.4358,0.178,-0.4142,-0.942,1.0676,0.1563,0.9589,0.2367,-0.5152,0.2836,-0.8088,-0.8427,0.0045,0.5384,-0.2891,-0.3837,0.524,0.7033,"Andando","Med",102.0595,35.4441,98.5379,114.5343,-678.0051,-5.7625,18.196,-44.8439
-0.2722,0.8561,-0.5045,-0.0394,0.0461,0.0368,-0.1336,0.4333,0.1652,-0.4085,-0.9436,1.0696,0.1589,0.9594,0.2331,-0.5147,0.282,-0.8097,-0.8425,0.0086,0.5386,-0.2908,-0.3823,0.5239,0.7035,"Andando","Med",102.0595,35.4441,98.5379,114.5343,-678.0051,-5.2578,18.2347,-44.7697
-0.273,0.8514,-0.5161,-0.0426,0.043,0.0247,-0.1322,0.4145,0.144,-0.4032,-0.9451,1.0712,0.1615,0.9597,0.2298,-0.5141,0.2806,-0.8105,-0.8424,0.0128,0.5387,-0.2925,-0.3809,0.5236,0.7037,"Andando","Med",102.0595,35.4441,99.2556,114.6476,-677.6789,-4.5622,18.2047,-44.7045
-0.2782,0.8353,-0.519,-0.0503,0.0271,0.0196,-0.1191,0.3881,0.1327,-0.398,-0.9463,1.0729,0.164,0.9601,0.2266,-0.5137,0.2793,-0.8112,-0.8421,0.0166,0.539,-0.294,-0.3796,0.5234,0.704,"Andando","Med",102.0595,35.4441,99.2556,114.6476,-677.6789,-4.5622,18.2047,-44.7045
-0.282,0.8161,-0.5066,-0.0585,0.0087,0.0295,-0.0935,0.3774,0.1249,-0.3928,-0.9472,1.0747,0.1664,0.9604,0.2235,-0.5135,0.2779,-0.8118,-0.8418,0.0203,0.5394,-0.2954,-0.3782,0.5232,0.7042,"Andando","Med",102.0595,35.4441,99.2556,114.6476,-677.6789,-4.3014,18.2545,-44.8448
-0.2811,0.8,-0.4897,-0.0607,-0.0102,0.0474,-0.0658,0.3778,0.1321,-0.3872,-0.948,1.0769,0.1689,0.9607,0.2203,-0.5136,0.2765,-0.8123,-0.8413,0.024,0.5401,-0.2968,-0.3767,0.5232,0.7045,"Andando","Med",102.0595,35.4441,99.2556,114.6476,-677.6789,-4.3014,18.2545,-44.8448
-0.2876,0.7913,-0.4785,-0.0691,-0.0197,0.0614,-0.0481,0.3891,0.1481,-0.3812,-0.9488,1.0795,0.1713,0.9611,0.2168,-0.5137,0.2749,-0.8127,-0.8407,0.0279,0.5408,-0.2982,-0.3751,0.5231,0.7048,"Andando","Med",102.0595,35.4441,99.9588,115.0437,-677.6142,-3.8015,18.1965,-44.6137
-0.2986,0.7854,-0.4805,-0.083,-0.0267,0.062,-0.0466,0.4027,0.1703,-0.3747,-0.9496,1.0824,0.1738,0.9615,0.213,-0.5139,0.2731,-0.8132,-0.84,0.0319,0.5416,-0.2996,-0.3734,0.5231,0.7051,"Andando","Med",102.0595,35.4441,99.9588,115.0437,-677.6142,-3.8015,18.1965,-44.6137
-0.3104,0.7772,-0.4878,-0.0996,-0.0347,0.0566,-0.0474,0.4288,0.1905,-0.3677,-0.9506,1.0856,0.1765,0.9619,0.2089,-0.5141,0.2711,-0.8137,-0.8394,0.0362,0.5424,-0.3013,-0.3716,0.5232,0.7053,"Andando","Med",102.0595,35.4441,99.9588,115.0437,-677.6142,-3.3442,18.259,-44.9049
-0.3121,0.7704,-0.5014,-0.1079,-0.0426,0.0446,-0.0466,0.4487,0.2101,-0.3604,-0.9515,1.0892,0.179,0.9623,0.2047,-0.5144,0.2689,-0.8143,-0.8386,0.0405,0.5432,-0.3029,-0.3697,0.5233,0.7055,"Andando","Med",102.0595,35.4441,99.9588,115.0437,-677.6142,-3.3442,18.259,-44.9049
-0.3059,0.7608,-0.5174,-0.1069,-0.0517,0.0293,-0.0473,0.4335,0.2271,-0.3531,-0.9525,1.093,0.1812,0.9628,0.2004,-0.5147,0.2665,-0.8149,-0.838,0.0445,0.5439,-0.3045,-0.3679,0.5235,0.7056,"Andando","Med",102.0595,35.4441,100.807,115.4208,-677.8884,-2.9829,18.3817,-44.7748
-0.297,0.7494,-0.5223,-0.1028,-0.0642,0.0217,-0.0422,0.4021,0.241,-0.3458,-0.9534,1.0972,0.1831,0.9633,0.1962,-0.5152,0.264,-0.8154,-0.8373,0.0482,0.5446,-0.306,-0.3662,0.5238,0.7057,"Andando","Med",102.0595,35.4441,100.807,115.4208,-677.8884,-2.9829,18.3817,-44.7748
-0.2913,0.7429,-0.5129,-0.0999,-0.0722,0.0305,-0.0311,0.3764,0.2559,-0.3385,-0.9542,1.1018,0.1847,0.9639,0.192,-0.5158,0.2614,-0.8159,-0.8366,0.0516,0.5454,-0.3073,-0.3644,0.5243,0.7056,"Andando","Med",102.0595,35.4441,100.807,115.4208,-677.8884,-2.6432,18.4774,-44.929
-0.2897,0.7491,-0.5031,-0.1021,-0.0698,0.0411,-0.0096,0.3568,0.2649,-0.3313,-0.9548,1.1065,0.1861,0.9644,0.1879,-0.5166,0.2587,-0.8162,-0.8358,0.0548,0.5464,-0.3086,-0.3627,0.5248,0.7055,"Andando","Med",102.0595,35.4441,100.807,115.4208,-677.8884,-2.6432,18.4774,-44.929
-0.2825,0.7646,-0.4876,-0.101,-0.0552,0.0564,0.0168,0.3333,0.2734,-0.324,-0.9551,1.1117,0.1871,0.965,0.1838,-0.5177,0.2559,-0.8164,-0.8348,0.0576,0.5475,-0.3097,-0.361,0.5255,0.7054,"Andando","Med",102.0595,35.4441,100.9475,115.0372,-677.7285,-2.435,18.516,-44.7201
-0.2673,0.7907,-0.4739,-0.0902,-0.032,0.073,0.0425,0.322,0.2711,-0.3167,-0.9552,1.1167,0.1883,0.9655,0.1798,-0.5189,0.2533,-0.8164,-0.8338,0.0604,0.5487,-0.3108,-0.3593,0.5261,0.7054,"Andando","Med",102.0595,35.4441,100.9475,115.0372,-677.7285,-2.435,18.516,-44.7201
-0.2585,0.8184,-0.4679,-0.0834,-0.0028,0.0812,0.0581,0.3226,0.2616,-0.3096,-0.9551,1.1218,0.1894,0.966,0.1759,-0.5203,0.2507,-0.8164,-0.8327,0.0631,0.5501,-0.3117,-0.3575,0.5268,0.7054,"Andando","Med",102.0595,35.4441,100.9475,115.0372,-677.7285,-1.9913,18.4567,-44.7545
-0.2577,0.84,-0.4666,-0.0851,0.0196,0.0852,0.0627,0.3247,0.2465,-0.3025,-0.955,1.1264,0.1908,0.9664,0.1721,-0.5215,0.2483,-0.8163,-0.8316,0.066,0.5514,-0.3127,-0.3557,0.5273,0.7054,"Andando","Med",102.0595,35.4441,100.9475,115.0372,-677.7285,-1.9913,18.4567,-44.7545
-0.2644,0.8564,-0.4673,-0.0946,0.0378,0.0855,0.0568,0.342,0.2379,-0.2953,-0.9549,1.131,0.1924,0.9668,0.1681,-0.5227,0.246,-0.8163,-0.8305,0.0692,0.5527,-0.3137,-0.3539,0.5278,0.7055,"Andando","Med",102.0595,35.4441,102.0758,114.5842,-677.7796,-1.6292,18.3594,-44.7957
-0.274,0.8658,-0.4719,-0.1084,0.0479,0.0835,0.0429,0.3843,0.227,-0.2879,-0.9549,1.1351,0.1945,0.9671,0.164,-0.5237,0.2438,-0.8163,-0.8294,0.0729,0.5539,-0.315,-0.3519,0.5281,0.7057,"Andando","Med",102.0595,35.4441,102.0758,114.5842,-677.7796,-1.6292,18.3594,-44.7957
-0.2792,0.869,-0.483,-0.1186,0.0528,0.0746,0.0288,0.428,0.2167,-0.2801,-0.9549,1.1392,0.1971,0.9673,0.1597,-0.5247,0.2417,-0.8163,-0.8282,0.0771,0.5551,-0.3163,-0.3498,0.5283,0.706,"Andando","Med",102.0595,35.4441,102.0758,114.5842,-677.7796,-1.1407,18.4883,-44.8884
-0.2827,0.8593,-0.4915,-0.1272,0.0463,0.0664,0.0292,0.4767,0.2084,-0.2721,-0.9549,1.143,0.2,0.9674,0.1552,-0.5256,0.2396,-0.8163,-0.8269,0.0816,0.5564,-0.3178,-0.3476,0.5284,0.7064,"Andando","Med",102.0595,35.4441,102.0758,114.5842,-677.7796,-1.1407,18.4883,-44.8884
-0.2765,0.8423,-0.4987,-0.128,0.0292,0.0602,0.0298,0.5045,0.2019,-0.2639,-0.9549,1.1471,0.2028,0.9676,0.1507,-0.5266,0.2375,-0.8162,-0.8255,0.0862,0.5577,-0.3192,-0.3453,0.5285,0.7068,"Andando","Med",102.0595,35.4441,102.7432,114.3273,-677.775,-0.8057,18.298,-44.8145
-0.2644,0.8283,-0.5036,-0.1206,0.0147,0.0569,0.0388,0.5134,0.1994,-0.2557,-0.9546,1.1509,0.2059,0.9676,0.1462,-0.5277,0.2356,-0.8161,-0.8241,0.0909,0.5591,-0.3206,-0.343,0.5286,0.7072,"Andando","Med",102.0595,35.4441,102.7432,114.3273,-677.775,-0.8057,18.298,-44.8145
-0.2555,0.8186,-0.5127,-0.1151,0.0041,0.0498,0.053,0.5048,0.1985,-0.2477,-0.9543,1.155,0.2086,0.9677,0.1417,-0.5289,0.2335,-0.8159,-0.8226,0.0952,0.5606,-0.3219,-0.3407,0.5288,0.7076,"Andando","Med",102.0595,35.4441,102.7432,114.3273,-677.775,-0.3329,18.3265,-44.9394
-0.2493,0.8154,-0.5224,-0.1132,0,0.0413,0.0631,0.467,0.1969,-0.2401,-0.9538,1.159,0.211,0.9678,0.1376,-0.5303,0.2316,-0.8156,-0.8212,0.0991,0.562,-0.323,-0.3386,0.529,0.7079,"Andando","Med",102.0595,35.4441,104.1957,113.9028,-677.9174,0.2431,18.4293,-45.0392
-0.2479,0.8128,-0.5267,-0.1134,-0.0016,0.0372,0.0803,0.4179,0.2008,-0.2329,-0.9531,1.1631,0.2131,0.9678,0.1337,-0.5317,0.2296,-0.8152,-0.8197,0.1026,0.5635,-0.324,-0.3365,0.5293,0.7082,"Andando","Med",102.0595,35.4441,104.1957,113.9028,-677.9174,0.2431,18.4293,-45.0392
-0.2537,0.8049,-0.5321,-0.1226,-0.0082,0.0347,0.0926,0.3688,0.2038,-0.2261,-0.9523,1.1674,0.2145,0.968,0.13,-0.5333,0.2276,-0.8148,-0.8183,0.1055,0.565,-0.3248,-0.3347,0.5298,0.7084,"Andando","Med",102.0595,35.4441,104.1957,113.9028,-677.9174,0.4278,18.3033,-45.0388
-0.264,0.7971,-0.5418,-0.1338,-0.0157,0.0264,0.1023,0.3096,0.2095,-0.2199,-0.9514,1.1717,0.2156,0.9682,0.1266,-0.5349,0.2256,-0.8142,-0.8169,0.1078,0.5666,-0.3254,-0.333,0.5304,0.7085,"Andando","Med",102.0595,35.4441,104.1957,113.9028,-677.9174,0.4278,18.3033,-45.0388
-0.2865,0.7897,-0.5445,-0.159,-0.0228,0.0236,0.1245,0.2233,0.2271,-0.214,-0.9504,1.1763,0.216,0.9686,0.1235,-0.5367,0.2234,-0.8136,-0.8157,0.1095,0.5681,-0.3258,-0.3314,0.5312,0.7084,"Andando","Med",102.0595,35.4441,104.8389,113.465,-678.0643,0.5115,18.3164,-45.098
-0.2934,0.7898,-0.5415,-0.1737,-0.0237,0.0275,0.1245,0.2233,0.2271,-0.2078,-0.9493,1.1811,0.2166,0.9688,0.1201,-0.5386,0.2212,-0.813,-0.8142,0.1114,0.5697,-0.3262,-0.3297,0.532,0.7084,"Andando","Med",102.0595,35.4441,104.8389,113.465,-678.0643,0.5115,18.3164,-45.098
-0.2884,0.7887,-0.5346,-0.1732,-0.0228,0.0357,0.1433,0.2779,0.2485,-0.2004,-0.948,1.1865,0.2175,0.9691,0.1161,-0.5407,0.2187,-0.8123,-0.8126,0.1139,0.5716,-0.3268,-0.3277,0.5328,0.7085,"Andando","Med",102.0595,35.4441,104.8389,113.465,-678.0643,0.8297,18.1124,-45.082
-0.2877,0.7829,-0.5428,-0.1763,-0.0274,0.0352,0.1568,0.3657,0.2673,-0.1919,-0.9466,1.1919,0.2193,0.9693,0.1115,-0.543,0.2162,-0.8114,-0.8106,0.1174,0.5737,-0.3276,-0.3253,0.5334,0.7087,"Andando","Med",102.0595,35.4441,104.8389,113.465,-678.0643,0.8297,18.1124,-45.082
-0.2858,0.7775,-0.5658,-0.1765,-0.0416,0.0022,0.2355,0.5349,0.2764,-0.1775,-0.9436,1.2006,0.2228,0.9693,0.1036,-0.5471,0.2123,-0.8097,-0.8068,0.1238,0.5777,-0.329,-0.3209,0.5344,0.7094,"Andando","Med",102.0595,35.4441,105.6873,113.1571,-678.4198,1.1523,18.0121,-45.1562
-0.2772,0.7653,-0.5754,-0.1793,-0.0409,0.0038,0.2827,0.6055,0.2834,-0.1722,-0.9423,1.2035,0.2244,0.9693,0.1007,-0.5487,0.2111,-0.8089,-0.8053,0.1263,0.5792,-0.3294,-0.3192,0.5347,0.7097,"Andando","Med",102.0595,35.4441,105.6873,113.1571,-678.4198,1.1523,18.0121,-45.1562
-0.2583,0.7413,-0.5706,-0.1677,-0.0598,0.0117,0.2827,0.6055,0.2834,-0.1611,-0.9397,1.2096,0.2276,0.9691,0.0947,-0.552,0.2085,-0.8074,-0.8022,0.1315,0.5824,-0.3304,-0.3156,0.5353,0.7104,"Andando","Med",102.0595,35.4441,105.6873,113.1571,-678.4198,2.0436,17.943,-45.1282
-0.2324,0.7133,-0.5644,-0.1497,-0.0667,0.0379,0.3054,0.4124,0.3036,-0.1359,-0.9326,1.2249,0.2335,0.969,0.0807,-0.5604,0.202,-0.8032,-0.7946,0.1423,0.5902,-0.3322,-0.3075,0.5373,0.7116,"Andando","Med",102.0595,35.4441,105.6873,113.1571,-678.4198,2.5606,17.5792,-45.3601
-0.2427,0.8026,-0.5025,-0.1278,0.0278,0.1363,0.3209,0.101,0.2449,-0.1244,-0.9264,1.2354,0.2329,0.9696,0.0745,-0.5672,0.1977,-0.7995,-0.7899,0.1439,0.5961,-0.3313,-0.3036,0.5398,0.7118,"Andando","Med",102.0595,35.4441,107.2453,112.6239,-678.4038,3.057,17.2068,-45.443
-0.1886,0.8301,-0.4489,-0.085,0.0425,0.1748,0.2707,0.0259,0.2154,-0.1207,-0.9236,1.2397,0.2319,0.97,0.0726,-0.5702,0.196,-0.7978,-0.7881,0.1436,0.5986,-0.3307,-0.3023,0.541,0.7118,"Andando","Med",102.0595,35.4441,107.2453,112.6239,-678.4038,3.3088,17.2529,-45.3073
-0.1913,0.8442,-0.4815,-0.1614,0.0609,0.0824,0.2872,0.3999,0.0909,-0.1031,-0.9118,1.2509,0.2356,0.9698,0.063,-0.5813,0.1926,-0.7906,-0.7789,0.1496,0.6091,-0.3294,-0.2949,0.5434,0.7137,"Andando","Med",102.0595,35.4441,107.2453,112.6239,-678.4038,3.472,16.2036,-45.5211
-0.233,0.8522,-0.5399,-0.1631,0.0619,0.0839,0.3171,0.4932,0.0668,-0.1,-0.9101,1.2518,0.2372,0.9695,0.0612,-0.5827,0.1924,-0.7896,-0.7773,0.1516,0.6106,-0.3295,-0.2935,0.5434,0.7142,"Andando","Med",102.0595,35.4441,107.2453,112.6239,-678.4038,3.472,16.2036,-45.5211
-0.24,0.8486,-0.5896,-0.1863,0.0626,0.0308,0.3415,0.5454,0.0545,-0.0934,-0.9066,1.2536,0.2408,0.9689,0.0575,-0.5857,0.1923,-0.7874,-0.774,0.1559,0.6138,-0.3297,-0.2906,0.5433,0.7153,"Andando","Med",102.0595,35.4441,108.26,111.8498,-678.7493,3.472,16.2036,-45.5211
-0.24,0.8486,-0.5896,-0.1584,0.0553,0.012,0.3415,0.5454,0.0545,-0.0901,-0.9047,1.2544,0.2427,0.9685,0.0556,-0.5872,0.1923,-0.7862,-0.7722,0.1582,0.6154,-0.3298,-0.289,0.5432,0.716,"Andando","Med",102.0595,35.4441,108.26,111.8498,-678.7493,4.038,15.9878,-45.621
-0.2077,0.8395,-0.6055,-0.1603,0.0565,0.0137,0.3691,0.5537,0.0312,-0.0868,-0.9027,1.255,0.2447,0.9681,0.0537,-0.5888,0.1924,-0.785,-0.7703,0.1605,0.6171,-0.3298,-0.2875,0.5432,0.7166,"Andando","Med",102.0595,35.4441,108.26,111.8498,-678.7493,4.038,15.9878,-45.621
-0.2077,0.8395,-0.6055,-0.1448,0.0493,0.0056,0.3691,0.5537,0.0312,-0.0837,-0.9007,1.2555,0.2467,0.9677,0.0519,-0.5904,0.1926,-0.7838,-0.7685,0.1627,0.6189,-0.3299,-0.2859,0.5431,0.7173,"Andando","Med",102.0595,35.4441,108.26,111.8498,-678.7493,4.038,15.9878,-45.621
-0.2077,0.8395,-0.6055,-0.1448,0.0493,0.0056,0.3691,0.5537,0.0312,-0.0837,-0.9007,1.2555,0.2467,0.9677,0.0519,-0.5904,0.1926,-0.7838,-0.7685,0.1627,0.6189,-0.3299,-0.2859,0.5431,0.7173,"Andando","Med",102.0595,35.4441,108.26,111.8498,-678.7493,4.038,15.9878,-45.621
-0.1978,0.8327,-0.6159,-0.1644,0.0568,-0.0056,0.3995,0.4724,-0.0157,-0.0787,-0.8964,1.2561,0.2503,0.9669,0.0491,-0.5938,0.1933,-0.7811,-0.7647,0.1663,0.6225,-0.3296,-0.2831,0.5429,0.7187,"Andando","Med",102.0595,35.4441,108.26,111.8498,-678.7493,4.4288,15.4561,-45.7563
-0.1978,0.8327,-0.6159,-0.1644,0.0568,-0.0056,0.3995,0.4724,-0.0157,-0.0787,-0.8964,1.2561,0.2503,0.9669,0.0491,-0.5938,0.1933,-0.7811,-0.7647,0.1663,0.6225,-0.3296,-0.2831,0.5429,0.7187,"Andando","Med",102.0595,35.4441,108.26,111.8498,-678.7493,4.4288,15.4561,-45.7563
-0.2181,0.8405,-0.6297,-0.1656,0.0583,-0.0037,0.4372,0.4071,-0.0445,-0.0766,-0.8941,1.2561,0.2519,0.9666,0.0479,-0.5955,0.1939,-0.7796,-0.7628,0.1679,0.6244,-0.3293,-0.2817,0.5428,0.7194,"Andando","Med",102.0595,35.4441,109.0479,111.821,-679.0071,4.4288,15.4561,-45.7563
-0.2181,0.8405,-0.6297,-0.1785,0.0697,0.0095,0.4372,0.4071,-0.0445,-0.0745,-0.8916,1.2561,0.2536,0.9662,0.0468,-0.5973,0.1944,-0.7781,-0.7609,0.1694,0.6264,-0.3289,-0.2804,0.5428,0.7201,"Andando","Med",102.0595,35.4441,109.0479,111.821,-679.0071,4.4288,15.4561,-45.7563
-0.2239,0.8489,-0.6084,-0.1797,0.0713,0.0116,0.4774,0.4142,-0.0421,-0.0725,-0.8891,1.2562,0.2552,0.9658,0.0456,-0.5992,0.195,-0.7765,-0.7589,0.1708,0.6285,-0.3285,-0.279,0.5427,0.7209,"Andando","Med",102.0595,35.4441,109.0479,111.821,-679.0071,5.0306,15.0519,-45.7955
-0.2195,0.8606,-0.5602,-0.1752,0.0843,0.0651,0.4774,0.4142,-0.0421,-0.0682,-0.8839,1.256,0.2587,0.965,0.0432,-0.603,0.1963,-0.7732,-0.7546,0.174,0.6327,-0.3278,-0.2761,0.5426,0.7224,"Andando","Med",102.0595,35.4441,109.0479,111.821,-679.0071,5.0306,15.0519,-45.7955
-0.2301,0.8613,-0.5471,-0.1885,0.0946,0.0893,0.487,0.4682,-0.0584,-0.0632,-0.8786,1.2558,0.263,0.964,0.0403,-0.6068,0.1978,-0.7698,-0.7501,0.178,0.637,-0.3272,-0.2729,0.5423,0.7242,"Andando","Med",102.0595,35.4441,109.6161,111.2677,-679.0358,5.4059,14.4923,-45.8062
-0.2402,0.836,-0.5495,-0.1983,0.0742,0.0941,0.5079,0.5831,-0.0621,-0.0577,-0.8731,1.2552,0.2678,0.9628,0.0371,-0.6107,0.1994,-0.7664,-0.7452,0.1826,0.6414,-0.3268,-0.2694,0.5418,0.726,"Andando","Med",102.0595,35.4441,109.6161,111.2677,-679.0358,5.4059,14.4923,-45.8062
-0.3015,0.8221,-0.5823,-0.2537,0.061,0.0711,0.5055,0.5953,-0.0902,-0.0524,-0.8676,1.2543,0.2728,0.9615,0.0339,-0.6146,0.2013,-0.7628,-0.7402,0.1873,0.6458,-0.3263,-0.2658,0.5412,0.728,"Andando","Med",102.0595,35.4441,109.6161,111.2677,-679.0358,5.992,14.0074,-45.9731
-0.3066,0.8161,-0.598,-0.2866,0.0585,0.0527,0.521,0.6305,-0.1063,-0.0468,-0.862,1.2532,0.2782,0.96,0.0304,-0.6184,0.2033,-0.7591,-0.735,0.1924,0.6502,-0.3259,-0.2621,0.5405,0.73,"Andando","Med",102.0595,35.4441,109.6161,111.2677,-679.0358,5.992,14.0074,-45.9731
-0.2184,0.8061,-0.5955,-0.2089,0.0527,0.0579,0.518,0.6726,-0.1138,-0.0409,-0.8566,1.2521,0.2837,0.9585,0.0268,-0.622,0.2053,-0.7556,-0.7298,0.1977,0.6545,-0.3256,-0.2584,0.5398,0.732,"Andando","Med",102.0595,35.4441,110.2749,110.1718,-679.1136,6.3581,13.5001,-45.916
-0.1818,0.7896,-0.6013,-0.1591,0.0411,0.0606,0.4877,0.6983,-0.1146,-0.0348,-0.8513,1.2507,0.2896,0.9569,0.0229,-0.6255,0.2073,-0.7522,-0.7245,0.2035,0.6586,-0.3255,-0.2545,0.5389,0.7341,"Andando","Med",102.0595,35.4441,110.2749,110.1718,-679.1136,6.3581,13.5001,-45.916
-0.208,0.7799,-0.6247,-0.1829,0.0331,0.043,0.4835,0.7358,-0.1178,-0.028,-0.846,1.2498,0.2955,0.9552,0.0185,-0.6291,0.2092,-0.7486,-0.7189,0.2096,0.6627,-0.3254,-0.2505,0.5381,0.7361,"Andando","Med",102.0595,35.4441,110.2749,110.1718,-679.1136,6.8629,13.1039,-46.0502
-0.2126,0.7509,-0.6332,-0.2041,0.01,0.0336,0.5073,0.8232,-0.1107,-0.0211,-0.8407,1.2482,0.302,0.9532,0.0141,-0.6325,0.2114,-0.7451,-0.7132,0.2162,0.6668,-0.3255,-0.2463,0.537,0.7383,"Andando","Med",102.0595,35.4441,110.2749,110.1718,-679.1136,6.8629,13.1039,-46.0502
-0.1425,0.7549,-0.6523,-0.1462,0.0128,0.0241,0.4845,0.7885,-0.1414,-0.0154,-0.8356,1.2464,0.3079,0.9514,0.0103,-0.6357,0.2138,-0.7417,-0.7078,0.2218,0.6706,-0.3254,-0.2425,0.5359,0.7403,"Andando","Med",102.0595,35.4441,111.4061,109.436,-679.1492,7.717,12.5183,-45.9333
-0.1654,0.7386,-0.6892,-0.1392,0.004,-0.0063,0.4565,0.6234,-0.1579,-0.0119,-0.8305,1.2439,0.3127,0.9498,0.008,-0.6388,0.2166,-0.7383,-0.703,0.2257,0.6744,-0.3247,-0.2395,0.5351,0.7422,"Andando","Med",102.0595,35.4441,111.4061,109.436,-679.1492,7.717,12.5183,-45.9333
-0.2519,0.7215,-0.6968,-0.2376,-0.009,-0.024,0.4931,0.4614,-0.1943,-0.0096,-0.825,1.2414,0.3168,0.9485,0.0065,-0.6421,0.2195,-0.7346,-0.6981,0.2285,0.6785,-0.3236,-0.2367,0.5344,0.7441,"Andando","Med",102.0595,35.4441,111.4061,109.436,-679.1492,8.343,11.9983,-45.9663
-0.1925,0.7043,-0.6335,-0.2074,-0.025,0.0352,0.5378,0.4133,-0.1947,-0.0075,-0.8193,1.2386,0.3209,0.9471,0.0051,-0.6454,0.2226,-0.7307,-0.6932,0.2312,0.6827,-0.3223,-0.234,0.5337,0.746,"Andando","Med",102.0595,35.4441,111.4061,109.436,-679.1492,8.343,11.9983,-45.9663
-0.1229,0.7039,-0.5877,-0.1259,-0.0219,0.0936,0.5207,0.4193,-0.2099,-0.0055,-0.8139,1.2357,0.3251,0.9457,0.0038,-0.6485,0.2258,-0.727,-0.6883,0.2338,0.6867,-0.3212,-0.2314,0.5329,0.7479,"Andando","Med",102.0595,35.4441,112.22,108.6233,-678.8636,8.4982,11.7684,-45.9435
-0.148,0.675,-0.5875,-0.1328,-0.0419,0.1062,0.4929,0.4042,-0.2138,-0.0039,-0.8086,1.2326,0.3292,0.9443,0.0027,-0.6514,0.2291,-0.7233,-0.6836,0.2363,0.6905,-0.32,-0.2288,0.532,0.7498,"Andando","Med",102.0595,35.4441,112.22,108.6233,-678.8636,8.4982,11.7684,-45.9435
-0.2083,0.6638,-0.6031,-0.1995,-0.0549,0.093,0.5087,0.4056,-0.2422,-0.0022,-0.8029,1.2292,0.3335,0.9427,0.0015,-0.6545,0.2327,-0.7194,-0.6785,0.2389,0.6946,-0.3187,-0.2261,0.5311,0.7518,"Andando","Med",102.0595,35.4441,112.22,108.6233,-678.8636,8.5675,11.368,-46.0762
-0.2042,0.6548,-0.6075,-0.2071,-0.0582,0.0932,0.5546,0.4543,-0.2692,-3e-04,-0.7968,1.2252,0.3385,0.9409,2e-04,-0.6577,0.2368,-0.7151,-0.6729,0.242,0.699,-0.3173,-0.2232,0.53,0.754,"Andando","Med",102.0595,35.4441,112.22,108.6233,-678.8636,8.5675,11.368,-46.0762
-0.187,0.6427,-0.6142,-0.1943,-0.0642,0.0891,0.6038,0.509,-0.2974,0.0021,-0.7902,1.2212,0.3439,0.939,-0.0015,-0.6611,0.241,-0.7105,-0.6668,0.2454,0.7037,-0.3159,-0.2199,0.5289,0.7564,"Andando","Med",102.0595,35.4441,112.7454,107.6622,-679.0288,8.9287,10.9254,-46.0824
-0.1472,0.6337,-0.6107,-0.1556,-0.074,0.0981,0.6213,0.5721,-0.3011,0.005,-0.7836,1.2169,0.3498,0.9368,-0.0035,-0.6645,0.2455,-0.7058,-0.6604,0.2493,0.7084,-0.3146,-0.2164,0.5275,0.7589,"Andando","Med",102.0595,35.4441,112.7454,107.6622,-679.0288,8.9287,10.9254,-46.0824
-0.168,0.656,-0.622,-0.1673,-0.0488,0.0932,0.6432,0.6171,-0.3109,0.0084,-0.7766,1.2127,0.356,0.9345,-0.006,-0.6681,0.25,-0.7008,-0.6534,0.2535,0.7133,-0.3133,-0.2126,0.5262,0.7615,"Andando","Med",102.0595,35.4441,112.7454,107.6622,-679.0288,9.4856,10.5343,-45.8892
-0.1649,0.6789,-0.6224,-0.1796,-0.0229,0.0964,0.6973,0.6794,-0.3196,0.0118,-0.7689,1.2081,0.3624,0.932,-0.0085,-0.6719,0.255,-0.6954,-0.6459,0.2577,0.7186,-0.3118,-0.2085,0.5247,0.7642,"Andando","Med",102.0595,35.4441,113.2119,106.2762,-678.9991,9.8779,9.9245,-46.0485
-0.1069,0.7116,-0.6405,-0.1312,0.0172,0.0891,0.7682,0.6784,-0.3758,0.0143,-0.7608,1.2022,0.3695,0.9292,-0.0104,-0.6757,0.261,-0.6895,-0.6379,0.2618,0.7242,-0.3099,-0.2045,0.5229,0.7673,"Andando","Med",102.0595,35.4441,113.2119,106.2762,-678.9991,9.8779,9.9245,-46.0485
-0.0546,0.7107,-0.6716,-0.0707,0.0305,0.0655,0.7968,0.6623,-0.474,0.0156,-0.7527,1.1952,0.3767,0.9263,-0.0114,-0.679,0.2677,-0.6836,-0.6302,0.2653,0.7297,-0.3079,-0.2008,0.5209,0.7704,"Andando","Med",102.0595,35.4441,113.2119,106.2762,-678.9991,10.324,9.2837,-46.1025
-0.0765,0.6827,-0.7122,-0.081,0.0113,0.0293,0.7538,0.5868,-0.5456,0.016,-0.7452,1.1875,0.384,0.9233,-0.0117,-0.6816,0.2749,-0.6781,-0.6228,0.2684,0.7349,-0.3059,-0.1975,0.5187,0.7736,"Andando","Med",102.0595,35.4441,113.2119,106.2762,-678.9991,10.324,9.2837,-46.1025
-0.0886,0.6567,-0.7145,-0.1023,-0.0127,0.0217,0.7029,0.5409,-0.5705,0.0159,-0.738,1.1798,0.3909,0.9203,-0.0118,-0.684,0.2819,-0.6728,-0.6159,0.2711,0.7397,-0.3038,-0.1945,0.5164,0.7766,"Andando","Med",102.0595,35.4441,114.5265,104.6832,-679.1752,10.5575,8.6194,-46.1216
-0.0593,0.6395,-0.6828,-0.0781,-0.0239,0.0552,0.6827,0.5352,-0.5821,0.0159,-0.731,1.172,0.3981,0.9173,-0.0118,-0.6861,0.2891,-0.6676,-0.609,0.2739,0.7444,-0.3019,-0.1915,0.5141,0.7797,"Andando","Med",102.0595,35.4441,114.5265,104.6832,-679.1752,10.5575,8.6194,-46.1216
-0.037,0.6186,-0.6622,-0.0493,-0.0416,0.0849,0.657,0.5129,-0.5639,0.0157,-0.7245,1.1651,0.4042,0.9146,-0.0118,-0.688,0.2956,-0.6627,-0.6026,0.276,0.7488,-0.3,-0.1888,0.5121,0.7824,"Andando","Med",102.0595,35.4441,114.5265,104.6832,-679.1752,10.9854,8.1005,-46.3602
-0.0844,0.6172,-0.68,-0.0805,-0.0403,0.0794,0.5894,0.4236,-0.5238,0.0151,-0.7186,1.1585,0.4098,0.9121,-0.0114,-0.6896,0.3017,-0.6583,-0.597,0.2777,0.7526,-0.2981,-0.1865,0.5102,0.7849,"Andando","Med",102.0595,35.4441,114.5265,104.6832,-679.1752,10.9854,8.1005,-46.3602
-0.143,0.5985,-0.7021,-0.1505,-0.0524,0.0552,0.5398,0.3572,-0.4521,0.0158,-0.7129,1.1536,0.4146,0.9099,-0.012,-0.6916,0.3065,-0.654,-0.5914,0.2795,0.7564,-0.2965,-0.1841,0.5087,0.787,"Andando","Med",102.0595,35.4441,115.1529,103.1849,-679.1638,11.0594,7.6601,-46.1949
-0.082,0.6249,-0.6874,-0.1176,-0.0354,0.0702,0.5438,0.4996,-0.3367,0.0191,-0.7073,1.1498,0.4199,0.9074,-0.0145,-0.6938,0.3106,-0.6497,-0.5851,0.2829,0.76,-0.2955,-0.1808,0.5073,0.7891,"Andando","Med",102.0595,35.4441,115.1529,103.1849,-679.1638,11.0594,7.6601,-46.1949
5e-04,0.6732,-0.7203,-0.0265,0.0207,0.0557,0.5126,0.6479,-0.2351,0.0239,-0.7022,1.1476,0.4247,0.9052,-0.0183,-0.6961,0.3135,-0.6459,-0.5789,0.287,0.7632,-0.2949,-0.1773,0.5062,0.7908,"Andando","Med",102.0595,35.4441,115.1529,103.1849,-679.1638,11.5317,7.301,-46.1181
-0.0126,0.6853,-0.8019,-0.0276,0.0424,-0.0194,0.4273,0.6302,-0.1559,0.0287,-0.6979,1.1459,0.4289,0.9031,-0.022,-0.698,0.3158,-0.6426,-0.5734,0.291,0.7658,-0.2946,-0.174,0.5053,0.7922,"Andando","Med",102.0595,35.4441,115.1529,103.1849,-679.1638,11.5317,7.301,-46.1181
-0.0268,0.6834,-0.8633,-0.0551,0.0429,-0.0865,0.3721,0.561,-0.0901,0.0338,-0.6939,1.1457,0.4319,0.9016,-0.026,-0.7003,0.3171,-0.6396,-0.5684,0.2944,0.7683,-0.2943,-0.1709,0.5048,0.7933,"Andando","Med",102.0595,35.4441,116.2503,102.2204,-678.7843,11.7307,6.748,-46.0612
0.0112,0.7057,-0.8869,-0.0269,0.0631,-0.112,0.3748,0.5447,-0.0067,0.039,-0.6898,1.1459,0.4345,0.9002,-0.0301,-0.7028,0.318,-0.6364,-0.5633,0.2976,0.7708,-0.294,-0.1679,0.5046,0.7942,"Andando","Med",102.0595,35.4441,116.2503,102.2204,-678.7843,11.7307,6.748,-46.0612
0.0323,0.7268,-0.9248,-0.0024,0.0913,-0.1415,0.3683,0.4561,0.049,0.0429,-0.6859,1.1472,0.4355,0.8996,-0.0332,-0.7054,0.3181,-0.6334,-0.5593,0.2992,0.7731,-0.2934,-0.1655,0.5049,0.7948,"Andando","Med",102.0595,35.4441,116.2503,102.2204,-678.7843,12.3849,6.4413,-45.8459
0.039,0.7323,-0.9705,0.0037,0.1001,-0.1882,0.3247,0.2122,0.0951,0.0439,-0.6827,1.1484,0.4348,0.8999,-0.0341,-0.7077,0.318,-0.6309,-0.5569,0.2984,0.7751,-0.2922,-0.1644,0.5055,0.795,"Andando","Med",102.0595,35.4441,116.2503,102.2204,-678.7843,12.3849,6.4413,-45.8459
0.0129,0.7312,-0.9894,-0.0086,0.105,-0.2109,0.2475,-0.1713,0.1075,0.041,-0.6801,1.1503,0.4315,0.9016,-0.0319,-0.7098,0.3174,-0.6289,-0.5568,0.294,0.7769,-0.2903,-0.1652,0.5069,0.7946,"Andando","Med",102.0595,35.4441,117.0753,101.5351,-678.9905,12.2883,6.0445,-45.9093
-0.0325,0.7051,-0.9685,-0.0556,0.0829,-0.199,0.2041,-0.5488,0.1164,0.0352,-0.6778,1.1519,0.4267,0.904,-0.0274,-0.7116,0.3169,-0.6271,-0.5582,0.2871,0.7784,-0.2878,-0.1671,0.5086,0.794,"Andando","Med",102.0595,35.4441,117.0753,101.5351,-678.9905,12.2883,6.0445,-45.9093
0.013,0.7032,-0.8934,-0.025,0.0759,-0.1316,0.1681,-0.7799,0.1244,0.0273,-0.676,1.1535,0.4207,0.9069,-0.0213,-0.7131,0.3161,-0.6257,-0.5607,0.2785,0.7798,-0.285,-0.17,0.5106,0.7932,"Andando","Med",102.0595,35.4441,117.0753,101.5351,-678.9905,11.9824,5.6703,-46.3165
0.0697,0.6927,-0.8117,0.0546,0.0748,-0.0441,0.1257,-0.9462,0.0742,0.0174,-0.6745,1.1543,0.4144,0.91,-0.0136,-0.7142,0.3159,-0.6245,-0.564,0.2685,0.7809,-0.2818,-0.1737,0.5125,0.7923,"Andando","Med",102.0595,35.4441,117.0753,101.5351,-678.9905,11.9824,5.6703,-46.3165
0,0.64,-0.7716,0.0154,0.0263,0.0041,0.1054,-1.1243,0.042,0.0057,-0.6732,1.1552,0.4069,0.9134,-0.0044,-0.7153,0.3156,-0.6235,-0.5681,0.2569,0.7818,-0.2781,-0.1781,0.5146,0.7913,"Andando","Med",102.0595,35.4441,116.2996,100.9395,-679.1758,10.9281,5.2915,-46.3208
-0.0413,0.6448,-0.7231,-0.0404,0.0146,0.047,0.0999,-1.2672,0.052,-0.0069,-0.6718,1.156,0.3991,0.9169,0.0054,-0.7163,0.3154,-0.6224,-0.5724,0.2445,0.7827,-0.2743,-0.1828,0.5168,0.7901,"Andando","Med",102.0595,35.4441,116.2996,100.9395,-679.1758,10.9281,5.2915,-46.3208
0.0529,0.7048,-0.658,0.0461,0.0707,0.1136,0.1065,-1.2762,0.0401,-0.019,-0.6704,1.1565,0.3917,0.92,0.0149,-0.7172,0.3154,-0.6213,-0.5763,0.2327,0.7834,-0.2706,-0.1873,0.5187,0.7891,"Andando","Med",102.0595,35.4441,116.2996,100.9395,-679.1758,9.9402,5.1298,-46.4667
0.0951,0.745,-0.6234,0.1214,0.1209,0.1576,0.0987,-1.1507,-0.0222,-0.0301,-0.6692,1.1562,0.3855,0.9224,0.0236,-0.7179,0.3159,-0.6204,-0.5797,0.2222,0.784,-0.2672,-0.1913,0.5202,0.7883,"Andando","Med",102.0595,35.4441,114.2741,100.6849,-679.8826,8.9529,4.8354,-46.6592
0.026,0.7452,-0.6332,0.0741,0.1256,0.155,0.0775,-0.9794,-0.0776,-0.0394,-0.6683,1.1553,0.381,0.9241,0.0309,-0.7181,0.3168,-0.6196,-0.5824,0.2139,0.7843,-0.2645,-0.1946,0.5212,0.7877,"Andando","Med",102.0595,35.4441,114.2741,100.6849,-679.8826,8.9529,4.8354,-46.6592
-0.0361,0.7513,-0.6536,0.0066,0.131,0.1349,0.0376,-0.7261,-0.087,-0.0456,-0.6676,1.1546,0.3781,0.9251,0.0358,-0.7182,0.3175,-0.6191,-0.5841,0.2084,0.7845,-0.2627,-0.1968,0.5218,0.7874,"Andando","Med",102.0595,35.4441,114.2741,100.6849,-679.8826,8.2742,4.6884,-46.9819
-0.0305,0.757,-0.6664,0.0029,0.1378,0.1199,0.017,-0.3427,-0.0995,-0.048,-0.6671,1.1532,0.3779,0.9251,0.0377,-0.7181,0.3186,-0.6187,-0.5843,0.2068,0.7847,-0.262,-0.1974,0.5216,0.7876,"Andando","Med",102.0595,35.4441,114.2741,100.6849,-679.8826,8.2742,4.6884,-46.9819
-0.0232,0.7286,-0.6824,0.0168,0.1205,0.108,0.021,0.0206,-0.1371,-0.0477,-0.6665,1.1517,0.3796,0.9244,0.0375,-0.718,0.3199,-0.6182,-0.5835,0.2077,0.7851,-0.262,-0.197,0.521,0.7881,"Andando","Med",102.0595,35.4441,113.1312,100.2311,-680.2421,8.5611,4.5052,-47.1056
-0.058,0.6752,-0.7229,-0.0151,0.0672,0.0709,0.0139,0.2622,-0.1684,-0.0454,-0.666,1.1494,0.383,0.9231,0.0357,-0.7175,0.3216,-0.6178,-0.5817,0.211,0.7855,-0.2626,-0.1956,0.5198,0.789,"Andando","Med",102.0595,35.4441,113.1312,100.2311,-680.2421,8.5611,4.5052,-47.1056
-0.0394,0.6335,-0.752,-0.0191,0.0234,0.0388,0.0183,0.4939,-0.2056,-0.0417,-0.6653,1.147,0.3874,0.9213,0.0328,-0.7171,0.3235,-0.6173,-0.5793,0.2156,0.7861,-0.2636,-0.1937,0.5184,0.7901,"Andando","Med",102.0595,35.4441,113.1312,100.2311,-680.2421,8.728,4.3603,-47.0157
0.0455,0.611,-0.7793,0.0602,-0.0027,0.0132,0.0331,0.5842,-0.2691,-0.0389,-0.6644,1.1432,0.3926,0.9192,0.0306,-0.7164,0.3265,-0.6166,-0.5768,0.2201,0.7867,-0.2643,-0.1919,0.5166,0.7915,"Andando","Med",102.0595,35.4441,113.1312,100.2311,-680.2421,8.728,4.3603,-47.0157
0.0585,0.5953,-0.8005,0.0972,-0.0159,-0.0099,0.0482,0.4164,-0.358,-0.0388,-0.6633,1.1387,0.3968,0.9174,0.0306,-0.7155,0.33,-0.6157,-0.575,0.2224,0.7874,-0.2643,-0.191,0.5149,0.7928,"Andando","Med",102.0595,35.4441,113.5737,100.4412,-679.6197,9.1324,4.0898,-46.8225
-0.0131,0.5547,-0.7996,0.0312,-0.0513,-0.0144,0.0875,0.2284,-0.4201,-0.0403,-0.6617,1.1334,0.4008,0.9156,0.0318,-0.7147,0.3342,-0.6144,-0.5732,0.2235,0.7883,-0.2638,-0.1904,0.5132,0.7942,"Andando","Med",102.0595,35.4441,113.5737,100.4412,-679.6197,9.1324,4.0898,-46.8225
-0.0154,0.5585,-0.7661,0.0118,-0.0619,0.0156,0.1367,0.1373,-0.443,-0.0431,-0.6596,1.128,0.4042,0.914,0.034,-0.714,0.3386,-0.6128,-0.5716,0.2234,0.7895,-0.2627,-0.1903,0.5115,0.7957,"Andando","Med",102.0595,35.4441,113.5737,100.4412,-679.6197,9.1774,3.9269,-46.8038
0.0471,0.5997,-0.7303,0.0693,-0.0173,0.0542,0.1771,0.0504,-0.523,-0.0476,-0.657,1.1209,0.4082,0.9121,0.0377,-0.713,0.3444,-0.6107,-0.57,0.2224,0.7909,-0.2612,-0.1905,0.5095,0.7974,"Andando","Med",102.0595,35.4441,113.5737,100.4412,-679.6197,9.1774,3.9269,-46.8038
0.1059,0.6185,-0.7124,0.1442,0.008,0.0788,0.2175,-0.0998,-0.6336,-0.0551,-0.654,1.1128,0.4115,0.9104,0.0437,-0.7118,0.3509,-0.6084,-0.5692,0.2192,0.7924,-0.2589,-0.1917,0.5075,0.7992,"Andando","Med",102.0595,35.4441,113.582,100.257,-680.02,9.1968,3.8933,-46.8789
0.0757,0.6182,-0.717,0.1389,0.0129,0.0782,0.2387,-0.3295,-0.7621,-0.0655,-0.6508,1.1028,0.4147,0.9085,0.0521,-0.7101,0.3589,-0.6058,-0.569,0.2143,0.7939,-0.2559,-0.1938,0.5051,0.8012,"Andando","Med",102.0595,35.4441,113.582,100.257,-680.02,9.1968,3.8933,-46.8789
0.0297,0.6385,-0.7179,0.0977,0.0276,0.0762,0.2391,-0.518,-0.8623,-0.0778,-0.6476,1.0921,0.4176,0.9065,0.062,-0.7079,0.3674,-0.6033,-0.5696,0.2081,0.7951,-0.2525,-0.1966,0.5025,0.8031,"Andando","Med",102.0595,35.4441,113.582,100.257,-680.02,8.9848,3.6569,-46.8367
0.0249,0.6864,-0.7019,0.0959,0.0765,0.0897,0.2095,-0.5756,-0.9456,-0.0906,-0.6445,1.0802,0.4213,0.904,0.0723,-0.7051,0.3767,-0.6008,-0.5704,0.2021,0.7961,-0.2493,-0.1995,0.4995,0.8053,"Andando","Med",102.0601,35.3965,113.582,100.257,-680.02,8.9848,3.6569,-46.8367
0.0366,0.7157,-0.6778,0.1169,0.1127,0.1147,0.1699,-0.515,-1.0016,-0.1028,-0.6418,1.0679,0.4256,0.9012,0.0822,-0.7018,0.3861,-0.5986,-0.5712,0.1971,0.7968,-0.2463,-0.2023,0.4963,0.8075,"Andando","Med",102.0601,35.3965,112.6378,99.9741,-680.213,8.5772,3.6311,-47.0511
0.0186,0.7272,-0.6662,0.1185,0.129,0.13,0.1134,-0.4072,-1.0492,-0.1142,-0.6395,1.0549,0.431,0.8977,0.0914,-0.698,0.3958,-0.5968,-0.572,0.1934,0.7972,-0.2439,-0.2048,0.4925,0.8099,"Andando","Med",102.0601,35.3965,112.6378,99.9741,-680.213,8.5772,3.6311,-47.0511
-0.0422,0.7407,-0.6628,0.0696,0.1407,0.1335,0.0515,-0.3009,-1.0799,-0.1244,-0.6377,1.0419,0.4369,0.894,0.0997,-0.6937,0.4054,-0.5954,-0.5727,0.1909,0.7972,-0.242,-0.2069,0.4886,0.8123,"Andando","Med",102.0601,35.3965,112.6378,99.9741,-680.213,8.0667,3.7858,-47.0829
-0.0682,0.777,-0.657,0.0369,0.1742,0.139,-0.0146,-0.1222,-1.0867,-0.1317,-0.6364,1.0285,0.4448,0.8894,0.1056,-0.6889,0.4151,-0.5943,-0.5724,0.1916,0.7973,-0.241,-0.208,0.4841,0.815,"Andando","Med",102.0601,35.3965,112.6378,99.9741,-680.213,8.0667,3.7858,-47.0829
-0.0267,0.8087,-0.6577,0.0702,0.2116,0.1419,-0.0563,0.2949,-1.0876,-0.1347,-0.6353,1.0153,0.4549,0.884,0.1081,-0.6839,0.4245,-0.5934,-0.5704,0.196,0.7976,-0.2412,-0.2074,0.4791,0.8181,"Andando","Med",102.0601,35.3965,111.6963,99.9213,-680.1107,8.1051,3.8398,-47.2427
0.0063,0.8033,-0.6948,0.1136,0.2146,0.1143,-0.0831,0.6901,-1.1154,-0.1353,-0.6345,1.0011,0.4671,0.8775,0.1086,-0.6782,0.4344,-0.5928,-0.5674,0.2032,0.798,-0.2422,-0.2057,0.4734,0.8215,"Andando","Med",102.0601,35.3965,111.6963,99.9213,-680.1107,8.1051,3.8398,-47.2427
-0.0171,0.7725,-0.7515,0.0991,0.186,0.0566,-0.1415,0.858,-1.1647,-0.1354,-0.6343,0.9867,0.4797,0.8707,0.1087,-0.6719,0.4442,-0.5926,-0.5643,0.2112,0.7981,-0.2436,-0.204,0.4675,0.8249,"Andando","Med",102.0601,35.3965,111.6963,99.9213,-680.1107,8.4743,4.1023,-47.1018
-0.0593,0.7399,-0.7832,0.0577,0.155,0.0182,-0.204,0.8823,-1.2288,-0.1359,-0.6345,0.9714,0.4927,0.8634,0.1091,-0.665,0.4544,-0.5927,-0.5613,0.2195,0.798,-0.2451,-0.2023,0.4612,0.8284,"Andando","Med",102.0601,35.3965,112.5129,100.3603,-679.9123,9.2081,4.5198,-47.0323
-0.0741,0.7002,-0.7778,0.035,0.1139,0.0163,-0.2188,0.8799,-1.2833,-0.1371,-0.6344,0.955,0.5061,0.8554,0.11,-0.6575,0.4652,-0.5927,-0.5582,0.2276,0.7979,-0.2465,-0.2008,0.4546,0.832,"Andando","Med",102.0601,35.3965,112.5129,100.3603,-679.9123,9.2081,4.5198,-47.0323
-0.0579,0.681,-0.7543,0.0512,0.0915,0.0389,-0.1935,0.8263,-1.3365,-0.1394,-0.634,0.9385,0.5189,0.8475,0.112,-0.6499,0.4761,-0.5924,-0.5553,0.2346,0.7979,-0.2474,-0.1996,0.448,0.8356,"Andando","Med",102.0601,35.3965,112.5129,100.3603,-679.9123,9.5767,4.7835,-46.7758
-0.0709,0.6611,-0.7422,0.0507,0.0743,0.0548,-0.1575,0.7168,-1.3846,-0.1433,-0.6331,0.9212,0.5314,0.8393,0.1151,-0.642,0.4877,-0.5916,-0.5527,0.2405,0.798,-0.2479,-0.1989,0.4413,0.8392,"Andando","Med",102.0601,35.3965,112.5129,100.3603,-679.9123,9.5767,4.7835,-46.7758
-0.1158,0.6461,-0.746,0.0123,0.0566,0.0533,-0.1132,0.5702,-1.4044,-0.1484,-0.6316,0.9044,0.5428,0.8314,0.1194,-0.6344,0.4989,-0.5904,-0.5504,0.2447,0.7982,-0.2478,-0.1987,0.4349,0.8426,"Andando","Med",102.0601,35.3965,113.6094,101.3732,-679.684,9.7736,5.314,-46.7169
-0.1309,0.6506,-0.7481,-0.0082,0.0597,0.0509,-0.057,0.465,-1.4133,-0.1543,-0.6294,0.887,0.5542,0.8231,0.1242,-0.6266,0.5107,-0.5887,-0.548,0.2484,0.7988,-0.2473,-0.1986,0.4283,0.8461,"Andando","Med",102.0601,35.3965,113.6094,101.3732,-679.684,9.7736,5.314,-46.7169
-0.1021,0.6748,-0.7547,0.02,0.0824,0.0471,-0.0095,0.4311,-1.4336,-0.1605,-0.6268,0.8699,0.565,0.8149,0.1294,-0.619,0.5223,-0.5865,-0.5455,0.2513,0.7995,-0.2465,-0.1986,0.4219,0.8495,"Andando","Med",102.0601,35.3965,113.6094,101.3732,-679.684,9.8343,5.5912,-46.6041
-0.0679,0.6919,-0.772,0.0615,0.1069,0.0322,0.0148,0.4108,-1.4802,-0.1673,-0.6239,0.8516,0.5764,0.8059,0.1351,-0.6106,0.5346,-0.5842,-0.5431,0.2542,0.8003,-0.2457,-0.1988,0.4151,0.8531,"Andando","Med",102.0601,35.3965,113.6094,101.3732,-679.684,9.8343,5.5912,-46.6041
-0.0569,0.6793,-0.7796,0.0845,0.1011,0.0203,0.0043,0.3703,-1.5337,-0.1749,-0.621,0.8334,0.5872,0.797,0.1415,-0.602,0.5468,-0.5818,-0.5411,0.2565,0.8009,-0.2447,-0.1992,0.4083,0.8566,"Andando","Med",102.0601,35.3965,114.039,101.5329,-679.1671,10.0974,5.8915,-46.364
-0.0732,0.6546,-0.7553,0.0813,0.0822,0.0391,-0.0192,0.3228,-1.5791,-0.1828,-0.6181,0.8142,0.5984,0.7874,0.1481,-0.5926,0.5595,-0.5795,-0.5391,0.259,0.8014,-0.2437,-0.1998,0.4011,0.8601,"Andando","Med",102.0601,35.3965,114.039,101.5329,-679.1671,10.0974,5.8915,-46.364
-0.1263,0.6017,-0.7134,0.0388,0.0367,0.08,-0.0287,0.3486,-1.5861,-0.1896,-0.6152,0.796,0.6093,0.7778,0.1539,-0.5836,0.5713,-0.5771,-0.5368,0.2618,0.802,-0.2429,-0.2,0.3941,0.8635,"Andando","Med",102.0601,35.3965,114.039,101.5329,-679.1671,10.0209,6.0371,-46.2173
-0.1576,0.5542,-0.6801,0.0024,-0.0137,0.1184,-0.0268,0.4825,-1.5334,-0.1946,-0.6122,0.778,0.6209,0.7678,0.1582,-0.5744,0.5829,-0.5747,-0.5335,0.2659,0.8029,-0.2424,-0.1994,0.387,0.867,"Andando","Med",102.0601,35.3965,114.039,101.5329,-679.1671,10.0209,6.0371,-46.2173
-0.1327,0.5351,-0.6767,0.0205,-0.0348,0.1284,-0.0069,0.6551,-1.4455,-0.1983,-0.6092,0.7611,0.6321,0.7579,0.1616,-0.5657,0.5938,-0.5722,-0.5296,0.2703,0.804,-0.242,-0.1985,0.3802,0.8703,"Andando","Med",102.0601,35.3965,114.4397,101.9915,-678.9793,10.3283,6.4049,-46.1971
-0.0973,0.5314,-0.6857,0.0631,-0.0383,0.1219,-0.0069,0.6551,-1.4455,-0.2014,-0.606,0.7441,0.6437,0.7474,0.1644,-0.5567,0.6047,-0.5696,-0.5251,0.2751,0.8053,-0.2417,-0.1973,0.3731,0.8737,"Andando","Med",102.0601,35.3965,114.4397,101.9915,-678.9793,10.3283,6.4049,-46.1971
-0.1003,0.5352,-0.6987,0.0683,-0.0325,0.1105,0.011,0.6867,-1.4273,-0.2038,-0.6027,0.728,0.6547,0.7372,0.1667,-0.5481,0.615,-0.5668,-0.5204,0.2797,0.8068,-0.2413,-0.1959,0.3664,0.877,"Andando","Med",102.0601,35.3965,114.4397,101.9915,-678.9793,10.6151,6.7379,-45.9372
-0.0909,0.5424,-0.7014,0.0729,-0.0234,0.1061,0.0191,0.7507,-1.4086,-0.2051,-0.5994,0.7115,0.6665,0.7263,0.1681,-0.5391,0.6254,-0.5641,-0.5149,0.2853,0.8084,-0.2412,-0.1939,0.3593,0.8804,"Andando","Med",102.0601,35.3965,114.4397,101.9915,-678.9793,10.6151,6.7379,-45.9372
-0.0778,0.5428,-0.6943,0.0908,-0.0168,0.1148,0.0096,0.8639,-1.3887,-0.2051,-0.5963,0.6958,0.6781,0.7154,0.1685,-0.5304,0.6351,-0.5616,-0.5087,0.2914,0.8101,-0.2413,-0.1916,0.3525,0.8836,"Andando","Med",102.0601,35.3965,115.3662,102.7008,-678.8203,11.0376,7.0566,-45.7557
-0.1059,0.5188,-0.6937,0.0719,-0.0348,0.1184,-0.0177,0.9613,-1.3609,-0.2041,-0.5935,0.6801,0.6901,0.7039,0.168,-0.5213,0.6445,-0.5593,-0.502,0.2984,0.8118,-0.2418,-0.1889,0.3454,0.8869,"Andando","Med",102.0601,35.3965,115.3662,102.7008,-678.8203,11.0376,7.0566,-45.7557
-0.1825,0.5013,-0.6943,0.0021,-0.0545,0.1185,-0.0413,1.0014,-1.3106,-0.2024,-0.591,0.6657,0.7012,0.6931,0.167,-0.5129,0.6531,-0.5572,-0.4953,0.3051,0.8134,-0.2423,-0.186,0.3388,0.8899,"Andando","Med",102.0601,35.3965,115.3662,102.7008,-678.8203,11.6516,7.2886,-45.5197
-0.2492,0.5144,-0.6888,-0.0761,-0.0466,0.1258,-0.0297,0.9962,-1.2237,-0.2001,-0.5886,0.6516,0.7123,0.6821,0.1654,-0.5044,0.6613,-0.5552,-0.4881,0.312,0.8151,-0.2428,-0.183,0.3323,0.8928,"Andando","Med",102.0601,35.3965,115.3662,102.7008,-678.8203,11.6516,7.2886,-45.5197
-0.2351,0.5593,-0.6974,-0.0814,-0.0037,0.1232,-0.015,1.0422,-1.1719,-0.1967,-0.586,0.6388,0.7229,0.6715,0.1628,-0.4968,0.6688,-0.5531,-0.4803,0.3189,0.8171,-0.2434,-0.1795,0.3261,0.8957,"Andando","Med",102.0601,35.3965,116.4463,103.2384,-678.5448,12.0173,7.3658,-45.3983
-0.1448,0.6478,-0.7785,0.007,0.0923,0.0523,0.0103,1.3499,-1.1833,-0.1862,-0.5808,0.6123,0.7458,0.648,0.1548,-0.4805,0.6841,-0.5487,-0.4614,0.3348,0.8216,-0.245,-0.1709,0.3129,0.9016,"Andando","Med",102.0601,35.3965,116.4463,103.2384,-678.5448,12.9257,7.6157,-45.2145
-0.1448,0.6478,-0.7785,0.019,0.1239,0.0137,0.0103,1.3499,-1.1833,-0.1833,-0.5795,0.6054,0.7517,0.6417,0.1525,-0.4762,0.688,-0.5476,-0.4563,0.339,0.8227,-0.2454,-0.1685,0.3094,0.9031,"Andando","Med",102.0601,35.3965,116.4463,103.2384,-678.5448,12.9257,7.6157,-45.2145
-0.1292,0.6757,-0.8142,0.0376,0.1335,0.0022,-0.0025,1.3437,-1.196,-0.1774,-0.5771,0.5924,0.7628,0.6294,0.1479,-0.4679,0.6953,-0.5456,-0.4463,0.347,0.8249,-0.2463,-0.164,0.3028,0.906,"Andando","Med",102.0601,35.3965,118.1023,103.683,-678.1002,13.5943,7.8176,-44.8034
-0.0783,0.5464,-0.8777,0.0271,0.0059,-0.0201,0.1615,1.1373,-0.9101,-0.1313,-0.551,0.4918,0.8415,0.5286,0.1116,-0.4023,0.751,-0.5236,-0.3605,0.3957,0.8446,-0.2479,-0.1273,0.2511,0.927,"Andando","Med",102.0601,35.3965,118.1023,103.683,-678.1002,16.9863,8.5031,-43.6185
-0.0859,0.5255,-0.8609,0.0236,-0.0064,0.0024,0.1839,1.0219,-0.8763,-0.1263,-0.5478,0.4828,0.8482,0.5187,0.1075,-0.3963,0.7561,-0.5208,-0.3514,0.3991,0.8469,-0.2476,-0.1235,0.2463,0.9289,"Andando","Med",102.0601,35.3965,118.1023,103.683,-678.1002,17.8015,8.7365,-43.2074
-0.0811,0.5129,-0.8395,0.022,-0.005,0.0035,0.1819,0.8714,-0.8386,-0.1242,-0.5462,0.478,0.8515,0.5136,0.1059,-0.3931,0.7587,-0.5194,-0.3471,0.4007,0.8479,-0.2474,-0.1218,0.2438,0.9298,"Andando","Med",102.0601,35.3965,118.1023,103.683,-678.1002,17.8015,8.7365,-43.2074
-0.0811,0.5129,-0.8395,0.0253,-0.009,0.032,0.1819,0.8714,-0.8386,-0.1224,-0.5446,0.4744,0.854,0.5097,0.1045,-0.3907,0.7609,-0.5181,-0.3435,0.4016,0.8489,-0.2471,-0.1204,0.2419,0.9306,"Andando","Med",102.0601,35.3965,122.6641,104.7069,-676.1581,18.193,8.5995,-43.1356
-0.0811,0.5129,-0.8395,0.0253,-0.009,0.032,0.1819,0.8714,-0.8386,-0.1224,-0.5446,0.4744,0.854,0.5097,0.1045,-0.3907,0.7609,-0.5181,-0.3435,0.4016,0.8489,-0.2471,-0.1204,0.2419,0.9306,"Andando","Med",102.0601,35.3965,122.6641,104.7069,-676.1581,18.193,8.5995,-43.1356
-0.0843,0.5083,-0.8109,0.0241,-0.0077,0.033,0.1784,0.7208,-0.7793,-0.121,-0.5431,0.47,0.8568,0.5052,0.1033,-0.3877,0.7633,-0.5168,-0.3399,0.4027,0.8499,-0.2468,-0.119,0.2397,0.9314,"Andando","Med",102.0601,35.3965,122.6641,104.7069,-676.1581,18.193,8.5995,-43.1356
-0.0843,0.5083,-0.8109,-0.0317,-0.0101,0.0617,0.1784,0.7208,-0.7793,-0.1197,-0.5416,0.4657,0.8594,0.5009,0.1023,-0.3848,0.7656,-0.5155,-0.3366,0.4037,0.8508,-0.2465,-0.1177,0.2375,0.9322,"Andando","Med",102.0601,35.3965,122.6641,104.7069,-676.1581,18.193,8.5995,-43.1356
-0.1508,0.5054,-0.784,-0.0325,-0.0088,0.0626,0.1784,0.7208,-0.7793,-0.1186,-0.5401,0.4617,0.8619,0.4968,0.1015,-0.3821,0.7678,-0.5142,-0.3334,0.4044,0.8516,-0.2462,-0.1166,0.2355,0.9329,"Andando","Med",102.0601,35.3965,122.6641,104.7069,-676.1581,18.193,8.5995,-43.1356
-0.1508,0.5054,-0.784,-0.1078,0.0027,0.0885,0.1733,0.608,-0.7075,-0.1177,-0.5387,0.4589,0.8636,0.4939,0.1008,-0.3803,0.7696,-0.513,-0.3309,0.4047,0.8524,-0.2458,-0.1156,0.2341,0.9335,"Andando","Med",102.0601,35.3965,122.6641,104.7069,-676.1581,18.6567,8.6046,-42.8002
-0.1508,0.5054,-0.784,-0.1078,0.0027,0.0885,0.1733,0.608,-0.7075,-0.1177,-0.5387,0.4589,0.8636,0.4939,0.1008,-0.3803,0.7696,-0.513,-0.3309,0.4047,0.8524,-0.2458,-0.1156,0.2341,0.9335,"Andando","Med",102.0601,35.3965,122.6641,104.7069,-676.1581,18.6567,8.6046,-42.8002
-0.2309,0.5876,-0.7617,-0.1476,0.0866,0.0789,0.133,0.5334,-0.6441,-0.1126,-0.5311,0.4381,0.8757,0.4731,0.0969,-0.3658,0.7808,-0.5065,-0.3153,0.4081,0.8568,-0.244,-0.11,0.2238,0.9372,"Andando","Med",102.0601,35.3965,122.6641,104.7069,-676.1581,19.2673,8.6285,-42.6301
-0.2464,0.5928,-0.7811,-0.1482,0.0876,0.0795,0.1323,0.5306,-0.6707,-0.1119,-0.5299,0.4344,0.8777,0.4695,0.0963,-0.3632,0.7827,-0.5055,-0.3127,0.4087,0.8574,-0.2437,-0.109,0.222,0.9378,"Andando","Med",102.0601,35.3965,123.657,104.7253,-675.5197,19.2673,8.6285,-42.6301
-0.2464,0.5928,-0.7811,-0.1408,0.0797,0.0715,0.1323,0.5306,-0.6707,-0.1111,-0.5287,0.4318,0.8792,0.4667,0.0958,-0.3614,0.7842,-0.5044,-0.3105,0.4089,0.8581,-0.2434,-0.1083,0.2206,0.9383,"Andando","Med",102.0601,35.3965,123.657,104.7253,-675.5197,19.3054,8.7191,-42.4877
-0.2295,0.5793,-0.7864,-0.1413,0.0807,0.0722,0.1384,0.5051,-0.6944,-0.1105,-0.5275,0.428,0.8812,0.463,0.0953,-0.3586,0.7861,-0.5034,-0.308,0.4094,0.8588,-0.2431,-0.1074,0.2188,0.9389,"Andando","Med",102.0601,35.3965,123.657,104.7253,-675.5197,19.3054,8.7191,-42.4877
-0.2295,0.5793,-0.7864,-0.1413,0.0807,0.0722,0.1384,0.5051,-0.6944,-0.1105,-0.5275,0.428,0.8812,0.463,0.0953,-0.3586,0.7861,-0.5034,-0.308,0.4094,0.8588,-0.2431,-0.1074,0.2188,0.9389,"Andando","Med",102.0601,35.3965,123.657,104.7253,-675.5197,19.3054,8.7191,-42.4877
-0.2295,0.5793,-0.7864,-0.1066,0.054,0.0748,0.1384,0.5051,-0.6944,-0.11,-0.5263,0.4241,0.8832,0.4593,0.0949,-0.3558,0.7881,-0.5023,-0.3055,0.4099,0.8595,-0.2427,-0.1066,0.2169,0.9395,"Andando","Med",102.0601,35.3965,123.657,104.7253,-675.5197,19.3054,8.7191,-42.4877
-0.1977,0.5509,-0.7845,-0.0986,0.0271,0.0812,0.1479,0.4489,-0.6985,-0.1095,-0.5237,0.4176,0.8865,0.4531,0.0946,-0.3512,0.7916,-0.5001,-0.3014,0.4101,0.8608,-0.2419,-0.1053,0.2138,0.9406,"Andando","Med",102.0601,35.3965,123.657,104.7253,-675.5197,19.501,8.7385,-42.3721
-0.1977,0.5509,-0.7845,-0.0986,0.0271,0.0812,0.1479,0.4489,-0.6985,-0.1095,-0.5237,0.4176,0.8865,0.4531,0.0946,-0.3512,0.7916,-0.5001,-0.3014,0.4101,0.8608,-0.2419,-0.1053,0.2138,0.9406,"Andando","Med",102.0601,35.3965,123.657,104.7253,-675.5197,19.501,8.7385,-42.3721
-0.1922,0.5205,-0.7769,-0.0986,0.0283,0.0819,0.171,0.3549,-0.6812,-0.1095,-0.5223,0.4138,0.8882,0.4496,0.0947,-0.3485,0.7935,-0.4989,-0.2994,0.4102,0.8615,-0.2415,-0.1047,0.212,0.9412,"Andando","Med",102.0601,35.3965,123.657,104.7253,-675.5197,19.501,8.7385,-42.3721
-0.1922,0.5205,-0.7769,-0.0868,-0.001,0.098,0.171,0.3549,-0.6812,-0.1098,-0.5209,0.4101,0.8898,0.4463,0.095,-0.3458,0.7954,-0.4977,-0.2977,0.41,0.8621,-0.241,-0.1043,0.2103,0.9417,"Andando","Med",102.0601,35.3965,123.7269,104.7784,-675.4837,19.501,8.7385,-42.3721
-0.1792,0.4922,-0.7621,-0.0862,3e-04,0.0986,0.1919,0.1936,-0.6521,-0.1104,-0.5195,0.4065,0.8913,0.4432,0.0957,-0.3432,0.7974,-0.4964,-0.2963,0.4096,0.8628,-0.2404,-0.104,0.2086,0.9423,"Andando","Med",102.0601,35.3965,123.7269,104.7784,-675.4837,19.501,8.7385,-42.3721
-0.1716,0.476,-0.763,-0.0755,-0.0146,0.1021,0.1919,0.1936,-0.6521,-0.1123,-0.5165,0.4006,0.8934,0.4385,0.0975,-0.3391,0.8007,-0.4939,-0.2946,0.4082,0.8641,-0.2391,-0.1039,0.2061,0.9432,"Andando","Med",102.0601,35.3965,123.7269,104.7784,-675.4837,19.8962,8.7496,-42.164
-0.1621,0.4624,-0.7751,-0.0642,-0.027,0.0939,0.195,0.1341,-0.6195,-0.1143,-0.5136,0.3955,0.8952,0.4344,0.0993,-0.3355,0.8037,-0.4913,-0.2933,0.4065,0.8653,-0.2378,-0.104,0.2039,0.944,"Andando","Med",102.0601,35.3965,123.5319,104.6022,-675.6113,19.9611,8.9797,-42.3901
-0.1653,0.4628,-0.8018,-0.0626,-0.0277,0.0703,0.1846,0.1023,-0.5431,-0.1162,-0.511,0.39,0.8971,0.4301,0.1012,-0.3317,0.8068,-0.489,-0.2919,0.4051,0.8664,-0.2366,-0.104,0.2016,0.9448,"Andando","Med",102.0601,35.3965,123.5319,104.6022,-675.6113,19.9611,8.9797,-42.3901
-0.1587,0.4772,-0.8335,-0.0586,-0.0131,0.0409,0.1689,0.0559,-0.4738,-0.1184,-0.5086,0.3864,0.8981,0.4275,0.1031,-0.3292,0.809,-0.487,-0.2916,0.4034,0.8673,-0.2355,-0.1044,0.2001,0.9453,"Andando","Med",102.0601,35.3965,123.5319,104.6022,-675.6113,19.8769,8.7697,-42.2136
-0.1435,0.4943,-0.8739,-0.0405,0.0056,0.002,0.1355,-0.0109,-0.4154,-0.121,-0.5065,0.3823,0.8992,0.4247,0.1056,-0.3262,0.8113,-0.4851,-0.2917,0.4018,0.868,-0.2344,-0.105,0.1985,0.9458,"Andando","Med",102.0601,35.3965,123.5319,104.6022,-675.6113,19.8769,8.7697,-42.2136
-0.1385,0.5062,-0.9046,-0.0291,0.0209,-0.0314,0.1239,-0.1015,-0.3662,-0.1242,-0.5047,0.38,0.8993,0.4237,0.1085,-0.3246,0.8129,-0.4835,-0.293,0.3996,0.8686,-0.2334,-0.1061,0.1977,0.9461,"Andando","Med",102.0601,35.3965,123.7732,104.5291,-675.5666,19.5227,8.5807,-42.4047
-0.1593,0.5152,-0.9161,-0.0424,0.0316,-0.0465,0.0973,-0.1783,-0.32,-0.128,-0.5031,0.3769,0.8996,0.4222,0.1118,-0.3224,0.8146,-0.4821,-0.2946,0.3977,0.8689,-0.2324,-0.1074,0.1967,0.9465,"Andando","Med",102.0601,35.3965,123.7732,104.5291,-675.5666,19.5227,8.5807,-42.4047
-0.1705,0.5168,-0.9113,-0.0543,0.0361,-0.0437,0.089,-0.2514,-0.2748,-0.1323,-0.5015,0.3756,0.8989,0.4226,0.1156,-0.3216,0.8157,-0.4808,-0.2975,0.395,0.8692,-0.2313,-0.1091,0.1966,0.9466,"Andando","Med",102.0601,35.3965,123.7732,104.5291,-675.5666,19.7356,8.6744,-42.7036
-0.1832,0.5454,-0.8911,-0.0609,0.0635,-0.024,0.0952,-0.3565,-0.2163,-0.1405,-0.4992,0.3728,0.8977,0.4231,0.123,-0.3198,0.8177,-0.4787,-0.3031,0.3904,0.8693,-0.2295,-0.1125,0.1962,0.9467,"Andando","Med",102.0601,35.3965,123.7732,104.5291,-675.5666,19.7356,8.6744,-42.7036
-0.1832,0.5454,-0.8911,-0.0388,0.0714,-0.0118,0.0909,-0.5998,-0.1659,-0.1474,-0.4977,0.3725,0.8958,0.4253,0.1291,-0.3198,0.8184,-0.4774,-0.3087,0.3864,0.8692,-0.2282,-0.1156,0.1968,0.9465,"Andando","Med",102.0601,35.3965,123.1502,104.209,-675.7526,19.0835,8.4136,-42.9249
-0.1629,0.548,-0.8783,-0.0354,0.072,-0.012,0.0909,-0.5998,-0.1659,-0.1512,-0.497,0.3718,0.8949,0.4261,0.1324,-0.3194,0.8189,-0.4768,-0.3116,0.3844,0.869,-0.2275,-0.1173,0.1969,0.9464,"Andando","Med",102.0601,35.3965,123.1502,104.209,-675.7526,19.0835,8.4136,-42.9249
-0.1606,0.5541,-0.8633,-0.0177,0.0756,0.0018,0.0761,-0.7183,-0.1462,-0.1595,-0.4959,0.3718,0.8924,0.4291,0.1397,-0.3195,0.8194,-0.4758,-0.3186,0.38,0.8684,-0.2261,-0.1211,0.1978,0.9461,"Andando","Med",102.0601,35.3965,123.1502,104.209,-675.7526,18.661,8.3673,-43.024
-0.1884,0.5622,-0.848,-0.0361,0.0863,0.0167,0.0628,-0.8616,-0.0902,-0.1683,-0.4949,0.371,0.89,0.4315,0.1474,-0.319,0.8202,-0.4749,-0.3259,0.3756,0.8676,-0.2248,-0.1251,0.1984,0.9457,"Andando","Med",102.0601,35.3965,123.1502,104.209,-675.7526,18.661,8.3673,-43.024
-0.1902,0.5643,-0.8284,-0.0371,0.0905,0.0333,0.0628,-0.8616,-0.0902,-0.1774,-0.4937,0.3717,0.8867,0.4354,0.1554,-0.3198,0.8205,-0.4739,-0.3338,0.3705,0.8668,-0.2233,-0.1294,0.1997,0.9452,"Andando","Med",102.0601,35.3965,121.9072,104.2946,-676.4796,17.715,8.5642,-43.551
-0.1826,0.5588,-0.8075,-0.0194,0.0876,0.056,0.0853,-0.8723,-0.0484,-0.186,-0.4924,0.3719,0.8838,0.4385,0.163,-0.3202,0.821,-0.4727,-0.3411,0.3656,0.866,-0.2218,-0.1334,0.2008,0.9448,"Andando","Med",102.0601,35.3965,121.9072,104.2946,-676.4796,17.715,8.5642,-43.551
-0.2008,0.5483,-0.8095,-0.0253,0.08,0.0575,0.1105,-0.8514,0.0143,-0.194,-0.491,0.3741,0.8802,0.4431,0.17,-0.3222,0.8209,-0.4715,-0.3485,0.3602,0.8653,-0.2202,-0.1373,0.2026,0.9442,"Andando","Med",102.0601,35.3965,121.9072,104.2946,-676.4796,17.1031,8.1572,-43.9303
-0.2271,0.5171,-0.8164,-0.0466,0.0545,0.0489,0.1289,-0.7922,0.0582,-0.201,-0.4894,0.3753,0.8773,0.4465,0.1762,-0.3235,0.8212,-0.4701,-0.3546,0.3554,0.8648,-0.2187,-0.1406,0.2039,0.9438,"Andando","Med",102.0601,35.3965,121.9072,104.2946,-676.4796,17.1031,8.1572,-43.9303
-0.237,0.4798,-0.8146,-0.0551,0.0183,0.05,0.1433,-0.6976,0.069,-0.2069,-0.4879,0.378,0.8741,0.4507,0.1814,-0.326,0.821,-0.4688,-0.3602,0.3506,0.8645,-0.2171,-0.1435,0.2058,0.9433,"Andando","Med",102.0601,35.3965,120.4254,103.7968,-677.3395,15.9961,7.7595,-44.3389
-0.2303,0.4532,-0.8262,-0.0476,-0.0104,0.0414,0.1409,-0.5722,0.0597,-0.2117,-0.4863,0.3791,0.8719,0.4531,0.1858,-0.3272,0.8213,-0.4673,-0.3643,0.3467,0.8643,-0.2158,-0.1458,0.2068,0.9431,"Andando","Med",102.0601,35.3965,120.4254,103.7968,-677.3395,15.9961,7.7595,-44.3389
-0.2039,0.4463,-0.8408,-0.0196,-0.0199,0.0261,0.1532,-0.4934,0.0615,-0.2162,-0.4845,0.3818,0.8691,0.4567,0.1898,-0.3297,0.8212,-0.4658,-0.3686,0.3422,0.8643,-0.2143,-0.1481,0.2086,0.9427,"Andando","Med",102.0601,35.3965,120.4254,103.7968,-677.3395,15.4553,7.7928,-44.5842
-0.1803,0.464,-0.8601,0.0101,-0.0052,0.0088,0.162,-0.5169,0.0539,-0.2215,-0.4827,0.3828,0.8669,0.459,0.1946,-0.3308,0.8216,-0.4642,-0.3729,0.338,0.8641,-0.2128,-0.1506,0.2095,0.9424,"Andando","Med",102.0601,35.3965,120.4254,103.7968,-677.3395,15.4553,7.7928,-44.5842
-0.1517,0.4834,-0.881,0.0416,0.018,-0.0143,0.156,-0.6221,0.0095,-0.2285,-0.4809,0.3843,0.8637,0.4623,0.2008,-0.3324,0.8219,-0.4626,-0.3789,0.3328,0.8635,-0.2111,-0.1539,0.2109,0.942,"Andando","Med",102.0601,35.3965,119.5476,103.6593,-677.7309,15.1836,7.7243,-44.9501
-0.1123,0.5001,-0.8899,0.0894,0.0347,-0.0268,0.1404,-0.7759,-0.0598,-0.2374,-0.4791,0.3838,0.8606,0.4645,0.2087,-0.3323,0.8228,-0.461,-0.3859,0.3274,0.8625,-0.2093,-0.1579,0.2116,0.9415,"Andando","Med",102.0601,35.3965,119.5476,103.6593,-677.7309,15.1836,7.7243,-44.9501
-0.1043,0.5252,-0.8807,0.1171,0.0612,-0.0229,0.1285,-0.9435,-0.1232,-0.2482,-0.4772,0.384,0.8565,0.4678,0.2182,-0.3328,0.8236,-0.4593,-0.3946,0.3208,0.8611,-0.2073,-0.1628,0.2127,0.9409,"Andando","Med",102.0601,35.3965,119.5476,103.6593,-677.7309,14.4484,7.7129,-45.3264
-0.1463,0.5391,-0.8572,0.0931,0.0804,-0.0034,0.1248,-1.0958,-0.166,-0.2605,-0.4752,0.3839,0.8518,0.4712,0.229,-0.333,0.8245,-0.4575,-0.4044,0.3134,0.8592,-0.205,-0.1684,0.2139,0.9401,"Andando","Med",102.0601,35.3965,118.0764,103.4015,-678.6998,13.3606,7.3723,-45.7549
-0.1982,0.547,-0.8248,0.0525,0.0887,0.0256,0.1303,-1.1999,-0.2066,-0.2737,-0.4731,0.3819,0.8475,0.4731,0.2406,-0.3318,0.826,-0.4556,-0.4143,0.3063,0.857,-0.2028,-0.1743,0.2142,0.9395,"Andando","Med",102.0601,35.3965,118.0764,103.4015,-678.6998,13.3606,7.3723,-45.7549
-0.2416,0.5598,-0.8014,0.0177,0.1041,0.0503,0.1179,-1.2102,-0.2564,-0.2867,-0.4709,0.3808,0.8428,0.4756,0.252,-0.3312,0.8273,-0.4537,-0.4243,0.2989,0.8548,-0.2004,-0.1801,0.2148,0.9387,"Andando","Med",102.0601,35.3965,118.0764,103.4015,-678.6998,12.0584,7.4037,-46.0485
-0.2637,0.5662,-0.7881,0.0015,0.1135,0.0618,0.1198,-1.1325,-0.3156,-0.2988,-0.4683,0.3776,0.8394,0.4759,0.2627,-0.329,0.8295,-0.4514,-0.4327,0.2925,0.8528,-0.1982,-0.1853,0.2145,0.9383,"Andando","Med",102.0601,35.3965,118.0764,103.4015,-678.6998,12.0584,7.4037,-46.0485
-0.2762,0.5847,-0.7672,-0.001,0.1312,0.0796,0.1434,-0.9757,-0.3797,-0.3092,-0.4653,0.3753,0.8362,0.4762,0.272,-0.3275,0.8315,-0.4487,-0.4398,0.2861,0.8513,-0.1959,-0.1897,0.2142,0.938,"Andando","Med",102.0601,35.3965,116.0768,103.4019,-679.1949,11.247,7.3639,-46.2905
-0.2963,0.5849,-0.754,-0.0131,0.1432,0.0956,0.1732,-0.7557,-0.4296,-0.3174,-0.4618,0.3713,0.8349,0.4743,0.2794,-0.3248,0.8343,-0.4456,-0.4444,0.2812,0.8505,-0.1937,-0.1929,0.213,0.938,"Andando","Med",102.0601,35.3965,116.0768,103.4019,-679.1949,11.247,7.3639,-46.2905
-0.2986,0.5551,-0.7554,-0.0156,0.1188,0.0958,0.2064,-0.5125,-0.4813,-0.3235,-0.4579,0.3682,0.834,0.4723,0.2851,-0.3228,0.8369,-0.4421,-0.4474,0.2767,0.8505,-0.1915,-0.1952,0.2119,0.9383,"Andando","Med",102.0601,35.3965,116.0768,103.4019,-679.1949,10.413,7.3686,-46.585
-0.2812,0.5366,-0.7576,0.0052,0.1002,0.0936,0.2169,-0.3027,-0.5212,-0.3281,-0.4538,0.3635,0.8346,0.4686,0.2896,-0.3196,0.84,-0.4384,-0.4487,0.2733,0.8508,-0.1895,-0.1966,0.2099,0.9388,"Andando","Med",102.0601,35.3965,116.0768,103.4019,-679.1949,10.413,7.3686,-46.585
-0.2795,0.5303,-0.7538,0.0161,0.0976,0.0954,0.2189,-0.1974,-0.5401,-0.332,-0.4498,0.3599,0.8349,0.4656,0.2935,-0.3172,0.8429,-0.4347,-0.4498,0.2699,0.8514,-0.1875,-0.1978,0.2083,0.9393,"Andando","Med",102.0601,35.3965,115.097,103.5193,-679.8057,10.2468,7.2733,-46.6293
-0.3009,0.5057,-0.7414,0.001,0.0811,0.1088,0.2045,-0.1736,-0.5469,-0.3361,-0.4459,0.355,0.8358,0.4615,0.2975,-0.3136,0.846,-0.4312,-0.4507,0.2671,0.8518,-0.1858,-0.199,0.2062,0.9399,"Andando","Med",102.0601,35.3965,115.097,103.5193,-679.8057,10.2468,7.2733,-46.6293
-0.309,0.4715,-0.7492,-0.0074,0.0494,0.1064,0.1712,-0.1955,-0.562,-0.3404,-0.4423,0.3508,0.8361,0.4582,0.3018,-0.3106,0.8487,-0.428,-0.4522,0.2641,0.8519,-0.184,-0.2004,0.2044,0.9403,"Andando","Med",102.0601,35.3965,115.097,103.5193,-679.8057,10.0251,7.2871,-46.657
-0.3106,0.4592,-0.7769,-0.0087,0.0271,0.0544,0.0984,-0.1668,-0.6131,-0.3468,-0.4372,0.3433,0.8372,0.4521,0.3079,-0.3049,0.8531,-0.4234,-0.4541,0.2606,0.852,-0.1817,-0.2025,0.2011,0.941,"Andando","Med",102.0601,35.3965,115.097,103.5193,-679.8057,9.6887,7.4356,-46.6403
-0.3167,0.4454,-0.8015,-0.0069,0.0286,0.0544,0.0984,-0.1668,-0.6131,-0.3487,-0.4356,0.3402,0.8379,0.4495,0.3098,-0.3025,0.8547,-0.4219,-0.4544,0.2598,0.8521,-0.1811,-0.2029,0.1997,0.9414,"Andando","Med",102.0601,35.3965,114.227,103.6476,-679.8926,9.6887,7.4356,-46.6403
-0.2984,0.412,-0.8141,0.009,-2e-04,0.0399,0.0833,-0.0788,-0.6549,-0.3519,-0.4322,0.3338,0.8396,0.4439,0.313,-0.2975,0.8579,-0.4189,-0.4544,0.2586,0.8524,-0.1798,-0.2036,0.1968,0.9421,"Andando","Med",102.0601,35.3965,114.227,103.6476,-679.8926,9.6887,7.4356,-46.6403
-0.2869,0.401,-0.8076,0.0304,-0.0157,0.0418,0.0905,-0.0209,-0.6712,-0.3548,-0.4286,0.3286,0.8409,0.4393,0.316,-0.2935,0.8609,-0.4156,-0.4546,0.2568,0.8529,-0.1783,-0.2044,0.1943,0.9427,"Andando","Med",102.0601,35.3965,114.227,103.6476,-679.8926,9.3982,7.4514,-46.8138
-0.3082,0.3973,-0.7848,0.0148,-0.0108,0.064,0.1213,-0.0397,-0.6482,-0.3578,-0.4249,0.3228,0.8425,0.434,0.3191,-0.289,0.864,-0.4123,-0.4546,0.2551,0.8534,-0.1769,-0.205,0.1916,0.9434,"Andando","Med",102.0601,35.3965,114.227,103.6476,-679.8926,9.3982,7.4514,-46.8138
-0.3015,0.3626,-0.7774,0.0163,-0.0404,0.0775,0.1286,-0.0664,-0.6173,-0.3611,-0.4215,0.3183,0.8433,0.4301,0.3223,-0.2856,0.8666,-0.4091,-0.4553,0.2529,0.8537,-0.1754,-0.206,0.1896,0.9439,"Andando","Med",102.0601,35.3965,113.9504,103.3604,-680.131,9.394,7.2753,-46.6851
-0.282,0.358,-0.8046,0.0424,-0.0511,0.0563,0.0971,-0.114,-0.5738,-0.3646,-0.4185,0.3133,0.8441,0.4258,0.3258,-0.2816,0.8692,-0.4064,-0.4562,0.2513,0.8536,-0.1741,-0.207,0.1873,0.9443,"Andando","Med",102.0601,35.3965,113.9504,103.3604,-680.131,9.394,7.2753,-46.6851
-0.3008,0.3828,-0.8403,0.034,-0.0265,0.0191,0.0639,-0.1585,-0.5076,-0.368,-0.4159,0.3097,0.8444,0.4228,0.3291,-0.2788,0.8712,-0.4041,-0.4575,0.2494,0.8535,-0.173,-0.2082,0.1857,0.9446,"Andando","Med",102.0601,35.3965,113.9504,103.3604,-680.131,9.5255,7.3852,-46.9797
-0.3182,0.3977,-0.8559,0.0146,-0.0058,-7e-04,0.0548,-0.132,-0.4728,-0.3707,-0.4135,0.3054,0.8452,0.4191,0.3318,-0.2753,0.8734,-0.4018,-0.4581,0.2482,0.8535,-0.172,-0.209,0.1837,0.945,"Andando","Med",102.0601,35.3965,113.9504,103.3604,-680.131,9.5255,7.3852,-46.9797
-0.3164,0.4087,-0.8627,0.0173,0.0066,-0.0072,0.0616,0.054,-0.4521,-0.3724,-0.411,0.302,0.8461,0.4158,0.3335,-0.2727,0.8752,-0.3995,-0.458,0.247,0.8539,-0.171,-0.2093,0.1821,0.9454,"Andando","Med",102.0601,35.3965,113.5679,103.6938,-680.1089,9.1951,7.5285,-46.9819
-0.3354,0.4292,-0.875,0.0053,0.0261,-0.018,0.0616,0.054,-0.4521,-0.3735,-0.4083,0.2978,0.8475,0.4117,0.3349,-0.2693,0.8774,-0.3971,-0.4573,0.2463,0.8545,-0.17,-0.2094,0.18,0.946,"Andando","Med",102.0601,35.3965,113.5679,103.6938,-680.1089,9.1951,7.5285,-46.9819
-0.3569,0.4694,-0.877,-0.0184,0.0675,-0.0231,0.0788,0.0493,-0.4793,-0.3752,-0.4054,0.2942,0.8486,0.4081,0.3367,-0.2664,0.8795,-0.3944,-0.4571,0.2449,0.855,-0.1689,-0.2097,0.1782,0.9465,"Andando","Med",102.0601,35.3965,113.5679,103.6938,-680.1089,9.1448,7.4877,-47.0825
-0.3606,0.4878,-0.8699,-0.0196,0.0948,-0.0159,0.0908,0.0021,-0.5363,-0.3775,-0.4022,0.2901,0.8494,0.4042,0.3392,-0.2632,0.8817,-0.3915,-0.4573,0.2432,0.8554,-0.1676,-0.2103,0.1762,0.9469,"Andando","Med",102.0601,35.3965,112.8781,103.6414,-680.1165,8.6132,7.4494,-47.1013
-0.3846,0.4932,-0.853,-0.0362,0.1042,-0.0027,0.0859,-0.0634,-0.5671,-0.3805,-0.399,0.2849,0.8505,0.3994,0.3422,-0.2589,0.8843,-0.3885,-0.4578,0.2418,0.8555,-0.1663,-0.2111,0.1737,0.9474,"Andando","Med",102.0601,35.3965,112.8781,103.6414,-680.1165,8.6132,7.4494,-47.1013
-0.4118,0.4871,-0.8149,-0.0623,0.1038,0.0318,0.0793,-0.1516,-0.5937,-0.384,-0.3958,0.2804,0.851,0.3954,0.3457,-0.2553,0.8867,-0.3855,-0.4589,0.2398,0.8555,-0.165,-0.2122,0.1716,0.9478,"Andando","Med",102.0601,35.3965,112.8781,103.6414,-680.1165,8.8015,7.6551,-47.2584
-0.4109,0.4706,-0.7706,-0.0643,0.0931,0.076,0.0793,-0.1516,-0.5937,-0.3877,-0.3927,0.2748,0.8518,0.3905,0.3493,-0.2507,0.8892,-0.3827,-0.46,0.2384,0.8553,-0.1637,-0.2134,0.169,0.9482,"Andando","Med",102.0601,35.3965,112.8781,103.6414,-680.1165,8.8015,7.6551,-47.2584
-0.3891,0.4334,-0.7334,-0.041,0.0611,0.1153,0.0478,-0.1434,-0.6032,-0.3911,-0.3898,0.2701,0.8523,0.3863,0.3526,-0.2468,0.8915,-0.38,-0.4612,0.2368,0.8551,-0.1626,-0.2145,0.1669,0.9485,"Andando","Med",102.0601,35.3965,112.7761,103.5736,-680.1235,8.4399,7.6833,-47.0782
-0.368,0.4065,-0.7106,-0.0168,0.0336,0.1417,0.0414,-0.1021,-0.5586,-0.3938,-0.387,0.2653,0.8532,0.3819,0.3553,-0.2428,0.8936,-0.3774,-0.4617,0.2357,0.8552,-0.1615,-0.2152,0.1646,0.9489,"Andando","Med",102.0601,35.3965,112.7761,103.5736,-680.1235,8.4399,7.6833,-47.0782
-0.34,0.3828,-0.717,0.0104,0.0129,0.1432,0.0715,-0.0541,-0.4812,-0.3956,-0.3842,0.2623,0.8537,0.3788,0.3573,-0.2404,0.8954,-0.3748,-0.4619,0.2341,0.8555,-0.1604,-0.2157,0.1631,0.9493,"Andando","Med",102.0601,35.3965,112.7761,103.5736,-680.1235,8.2856,7.5763,-47.2745
-0.3062,0.3749,-0.77,0.0468,0.0012,0.1,0.0897,-0.0107,-0.4216,-0.3969,-0.3816,0.2588,0.8547,0.3752,0.3588,-0.2375,0.8972,-0.3724,-0.4616,0.2331,0.8559,-0.1594,-0.216,0.1613,0.9497,"Andando","Med",102.0601,35.3965,112.7761,103.5736,-680.1235,8.2856,7.5763,-47.2745
-0.2929,0.3997,-0.8482,0.0659,0.0226,0.0234,0.0711,0.0314,-0.4032,-0.3976,-0.3792,0.2561,0.8556,0.3722,0.3597,-0.2353,0.8987,-0.3702,-0.4611,0.2321,0.8565,-0.1585,-0.216,0.1599,0.9501,"Andando","Med",102.0601,35.3965,112.0496,103.3727,-680.2889,7.7995,7.6626,-47.356
-0.2917,0.4492,-0.9003,0.0682,0.0697,-0.0363,0.0431,0.1244,-0.4312,-0.3973,-0.3768,0.2519,0.8575,0.3677,0.3598,-0.2318,0.9005,-0.3679,-0.4593,0.2321,0.8574,-0.1578,-0.2154,0.1576,0.9507,"Andando","Med",102.0601,35.3965,112.0496,103.3727,-680.2889,7.7995,7.6626,-47.356
-0.3047,0.4994,-0.9034,0.0583,0.1273,-0.0472,0.0413,0.2769,-0.4817,-0.3955,-0.3741,0.2481,0.8599,0.3631,0.3587,-0.2286,0.9023,-0.3654,-0.4563,0.2322,0.859,-0.157,-0.2141,0.1555,0.9515,"Andando","Med",102.0601,35.3965,112.0496,103.3727,-680.2889,8.0309,7.936,-47.2739
-0.3418,0.5001,-0.874,0.0249,0.1404,-0.0207,0.0643,0.3928,-0.5271,-0.3936,-0.3711,0.2432,0.8629,0.3574,0.3574,-0.2244,0.9045,-0.3626,-0.4528,0.2327,0.8607,-0.1563,-0.2127,0.1527,0.9524,"Andando","Med",102.0601,35.3965,112.0496,103.3727,-680.2889,8.0309,7.936,-47.2739
-0.3939,0.4775,-0.8317,-0.0265,0.1226,0.0214,0.0604,0.3594,-0.5652,-0.3924,-0.3681,0.2387,0.8653,0.3522,0.3568,-0.2206,0.9066,-0.3598,-0.4502,0.2326,0.8621,-0.1554,-0.2117,0.1502,0.9531,"Andando","Med",102.0601,35.3965,112.3308,103.4874,-680.0209,8.1878,7.8451,-47.1249
-0.4383,0.4477,-0.7944,-0.0748,0.0976,0.0629,0.0585,0.2679,-0.5814,-0.3918,-0.365,0.2334,0.8677,0.3464,0.3567,-0.2161,0.9088,-0.3569,-0.4478,0.2326,0.8634,-0.1545,-0.2108,0.1474,0.9539,"Andando","Med",102.0601,35.3965,112.3308,103.4874,-680.0209,8.1878,7.8451,-47.1249
-0.4516,0.4044,-0.7771,-0.0958,0.0593,0.0857,0.0765,0.258,-0.572,-0.3908,-0.3617,0.2294,0.8697,0.3416,0.3563,-0.2127,0.9108,-0.3539,-0.4454,0.232,0.8648,-0.1534,-0.2099,0.1452,0.9546,"Andando","Med",102.0601,35.3965,112.3308,103.4874,-680.0209,8.3601,7.6182,-47.235
-0.4278,0.3756,-0.784,-0.079,0.0273,0.0863,0.109,0.2923,-0.5377,-0.3896,-0.3583,0.2248,0.8721,0.3361,0.3557,-0.2088,0.9129,-0.3507,-0.4426,0.2316,0.8663,-0.1523,-0.2089,0.1426,0.9554,"Andando","Med",102.0601,35.3965,112.3308,103.4874,-680.0209,8.3601,7.6182,-47.235
-0.3942,0.377,-0.8109,-0.0451,0.0296,0.0618,0.1213,0.2793,-0.5322,-0.3888,-0.3548,0.221,0.874,0.3313,0.3555,-0.2056,0.9149,-0.3474,-0.4403,0.2305,0.8677,-0.1511,-0.2081,0.1404,0.9561,"Andando","Med",102.0601,35.3965,112.6379,103.5569,-680.1993,8.4065,7.7263,-47.1754
-0.3659,0.3705,-0.8258,-0.0142,0.0278,0.0446,0.1321,0.1973,-0.5557,-0.3893,-0.351,0.216,0.8757,0.3258,0.3564,-0.2013,0.9172,-0.3438,-0.4389,0.2294,0.8688,-0.1498,-0.2078,0.1377,0.9568,"Andando","Med",102.0601,35.3965,112.6379,103.5569,-680.1993,8.4065,7.7263,-47.1754
-0.3519,0.3606,-0.8233,0.0057,0.0239,0.0438,0.1866,-0.1276,-0.6485,-0.3916,-0.3468,0.2115,0.8765,0.3208,0.3589,-0.1974,0.9195,-0.3399,-0.4391,0.227,0.8693,-0.1481,-0.2084,0.1353,0.9572,"Andando","Med",102.0601,35.3965,112.6379,103.5569,-680.1993,8.3943,7.8342,-47.1896
-0.3538,0.3459,-0.8013,0.0106,0.0122,0.0622,0.1866,-0.1276,-0.6485,-0.3957,-0.342,0.2059,0.8768,0.3152,0.3631,-0.1926,0.9222,-0.3353,-0.4405,0.2241,0.8693,-0.146,-0.2098,0.1326,0.9576,"Andando","Med",102.0601,35.3965,112.6379,103.5569,-680.1993,8.3943,7.8342,-47.1896
-0.3656,0.3428,-0.7675,0.0056,0.0134,0.0945,0.2369,-0.2927,-0.6875,-0.4011,-0.3366,0.2009,0.8764,0.3101,0.3685,-0.1883,0.9249,-0.3303,-0.4433,0.2201,0.869,-0.1437,-0.2119,0.1301,0.9579,"Andando","Med",102.0601,35.3965,112.3663,103.6685,-680.4028,8.1244,7.7882,-47.2374
-0.3724,0.3321,-0.7347,0.0019,0.0101,0.128,0.2566,-0.3893,-0.7208,-0.4072,-0.3312,0.1951,0.8759,0.3043,0.3745,-0.1833,0.9277,-0.3252,-0.4464,0.2162,0.8683,-0.1413,-0.2142,0.1272,0.9581,"Andando","Med",102.0601,35.3965,112.3663,103.6685,-680.4028,8.1244,7.7882,-47.2374
-0.3617,0.3134,-0.7091,0.0163,-0.0039,0.1532,0.2398,-0.4215,-0.7246,-0.4134,-0.326,0.1898,0.875,0.2991,0.3806,-0.1787,0.9303,-0.3202,-0.4498,0.2122,0.8675,-0.1389,-0.2166,0.1247,0.9582,"Andando","Med",102.0601,35.3965,112.3663,103.6685,-680.4028,7.948,7.6825,-47.2486
-0.3613,0.3166,-0.6878,0.0262,-8e-04,0.1753,0.2234,-0.4243,-0.7046,-0.4192,-0.3209,0.1846,0.8743,0.2939,0.3863,-0.1742,0.9328,-0.3154,-0.453,0.2085,0.8668,-0.1367,-0.2189,0.1221,0.9584,"Andando","Med",102.0601,35.3965,111.5772,103.4141,-680.2631,7.4514,7.7366,-47.4596
-0.36,0.3152,-0.6702,0.0298,0.0069,0.1929,0.2012,-0.3588,-0.6951,-0.4241,-0.3161,0.179,0.874,0.2882,0.3911,-0.1692,0.9353,-0.3109,-0.4554,0.2055,0.8662,-0.1347,-0.2208,0.1193,0.9586,"Andando","Med",102.0601,35.3965,111.5772,103.4141,-680.2631,7.4514,7.7366,-47.4596
-0.3558,0.2948,-0.668,0.0398,-0.0083,0.1994,0.1625,-0.26,-0.6795,-0.4282,-0.3118,0.1739,0.874,0.2829,0.3952,-0.1647,0.9374,-0.3068,-0.4572,0.203,0.8659,-0.1329,-0.2223,0.1167,0.9588,"Andando","Med",102.0601,35.3965,111.5772,103.4141,-680.2631,7.0483,7.6081,-47.5536
-0.4318,0.3113,-0.705,-0.0146,0.011,0.163,0.1169,-0.1883,-0.6454,-0.4356,-0.3045,0.1635,0.8739,0.2724,0.4025,-0.1553,0.9413,-0.2998,-0.4605,0.1995,0.8649,-0.1301,-0.2249,0.1115,0.9592,"Andando","Med",102.0601,35.3965,111.5772,103.4141,-680.2631,6.6589,7.6848,-47.4446
-0.5098,0.289,-0.7097,-0.0886,-0.001,0.1535,0.0026,-0.305,-0.5575,-0.4399,-0.3015,0.1583,0.8735,0.2675,0.4067,-0.1505,0.943,-0.2969,-0.4629,0.1981,0.864,-0.129,-0.2266,0.109,0.9592,"Andando","Med",102.0601,35.3965,111.1058,103.6496,-680.6479,6.6589,7.6848,-47.4446
-0.5098,0.289,-0.7097,-0.1486,-0.0283,0.1606,0.0026,-0.305,-0.5575,-0.4423,-0.3002,0.1559,0.8732,0.2653,0.4089,-0.1483,0.9437,-0.2957,-0.4643,0.1976,0.8633,-0.1286,-0.2276,0.1078,0.9592,"Andando","Med",102.0601,35.3965,111.1058,103.6496,-680.6479,6.6589,7.6848,-47.4446
-0.5267,0.2745,-0.8435,-0.0718,-0.0208,-0.0181,-0.2254,-0.1754,-0.0189,-0.4634,-0.3003,0.141,0.8671,0.2566,0.4269,-0.1342,0.9458,-0.2958,-0.4797,0.1992,0.8545,-0.1293,-0.2367,0.1021,0.9575,"Andando","Med",102.0601,35.3965,111.1058,103.6496,-680.6479,5.3825,7.8584,-47.4185
-0.4906,0.2735,-0.8775,-0.0714,-0.0218,-0.0187,-0.2285,-0.1009,0.0627,-0.4641,-0.3013,0.1408,0.8667,0.257,0.4274,-0.134,0.9455,-0.2968,-0.4804,0.2,0.8539,-0.1297,-0.2371,0.1021,0.9574,"Andando","Med",102.0601,35.3965,111.1058,103.6496,-680.6479,5.3825,7.8584,-47.4185
-0.4906,0.2735,-0.8775,-0.0321,-0.0302,-0.0392,-0.2285,-0.1009,0.0627,-0.4645,-0.3024,0.1408,0.8665,0.2575,0.4276,-0.1339,0.9452,-0.2978,-0.4809,0.2008,0.8535,-0.1302,-0.2373,0.1022,0.9572,"Andando","Med",102.0601,35.3965,109.9185,103.8239,-680.8219,5.3825,7.8584,-47.4185
-0.4528,0.2674,-0.8964,-0.0322,-0.0313,-0.0396,-0.236,0.0246,0.1425,-0.4645,-0.3036,0.1409,0.8664,0.2582,0.4275,-0.134,0.9448,-0.299,-0.4811,0.2017,0.8532,-0.1308,-0.2373,0.1024,0.9571,"Andando","Med",102.0601,35.3965,109.9185,103.8239,-680.8219,5.3825,7.8584,-47.4185
-0.4528,0.2674,-0.8964,-0.003,-0.0279,-0.0618,-0.236,0.0246,0.1425,-0.4641,-0.3049,0.1416,0.8663,0.2593,0.427,-0.1346,0.9443,-0.3002,-0.4811,0.2026,0.853,-0.1314,-0.2372,0.1029,0.957,"Andando","Med",102.0601,35.3965,109.9185,103.8239,-680.8219,5.3416,8.0742,-47.5379
-0.4528,0.2674,-0.8964,-0.003,-0.0279,-0.0618,-0.236,0.0246,0.1425,-0.4641,-0.3049,0.1416,0.8663,0.2593,0.427,-0.1346,0.9443,-0.3002,-0.4811,0.2026,0.853,-0.1314,-0.2372,0.1029,0.957,"Andando","Med",102.0601,35.3965,109.9185,103.8239,-680.8219,5.3416,8.0742,-47.5379
-0.4262,0.2739,-0.9195,-0.0038,-0.0293,-0.0619,-0.2657,0.1556,0.2077,-0.4634,-0.3064,0.142,0.8664,0.2601,0.4262,-0.135,0.9438,-0.3016,-0.4807,0.2038,0.8529,-0.132,-0.2369,0.1032,0.957,"Andando","Med",102.0601,35.3965,109.9185,103.8239,-680.8219,5.3416,8.0742,-47.5379
-0.4262,0.2739,-0.9195,0.0118,-0.0276,-0.0791,-0.2657,0.1556,0.2077,-0.4624,-0.308,0.1425,0.8667,0.261,0.4251,-0.1354,0.9433,-0.3032,-0.4801,0.2052,0.8529,-0.1328,-0.2365,0.1036,0.9569,"Andando","Med",102.0601,35.3965,109.9185,103.8239,-680.8219,5.3416,8.0742,-47.5379
-0.4094,0.2747,-0.933,0.0104,-0.0293,-0.0791,-0.3335,0.2493,0.2534,-0.4611,-0.3099,0.143,0.8671,0.262,0.4238,-0.1358,0.9427,-0.3049,-0.4793,0.2069,0.8529,-0.1337,-0.2359,0.1039,0.9569,"Andando","Med",102.0601,35.3965,109.9185,103.8239,-680.8219,5.3416,8.0742,-47.5379
-0.4094,0.2747,-0.933,0.0378,-0.0294,-0.0764,-0.3335,0.2493,0.2534,-0.4597,-0.3119,0.144,0.8674,0.2633,0.4222,-0.1365,0.9419,-0.3068,-0.4785,0.2085,0.853,-0.1346,-0.2353,0.1045,0.9569,"Andando","Med",102.0601,35.3965,109.9185,103.8239,-680.8219,5.3389,8.3906,-47.3749
-0.3767,0.2819,-0.9262,0.0363,-0.0315,-0.0763,-0.3821,0.2655,0.2685,-0.4582,-0.314,0.1445,0.8678,0.2643,0.4207,-0.1369,0.9412,-0.3089,-0.4776,0.2105,0.853,-0.1357,-0.2347,0.1048,0.9568,"Andando","Med",102.0601,35.3965,109.734,104.4444,-680.6198,5.3389,8.3906,-47.3749
-0.3545,0.3271,-0.8973,0.0629,0.0029,-0.0517,-0.3821,0.2655,0.2685,-0.4557,-0.3184,0.1453,0.8686,0.2663,0.4179,-0.1375,0.9397,-0.313,-0.4761,0.2144,0.8529,-0.1378,-0.2336,0.1055,0.9567,"Andando","Med",102.0601,35.3965,109.734,104.4444,-680.6198,5.3389,8.3906,-47.3749
-0.3711,0.3549,-0.8479,0.0486,0.0385,-0.0071,-0.3898,0.2068,0.227,-0.4538,-0.3226,0.1461,0.869,0.2683,0.4158,-0.1381,0.9383,-0.317,-0.4752,0.218,0.8524,-0.1398,-0.2329,0.1062,0.9565,"Andando","Med",102.0601,35.3965,109.734,104.4444,-680.6198,5.7146,8.5395,-47.1531
-0.3874,0.3385,-0.7904,0.0306,0.0191,0.0509,-0.3848,0.1351,0.2014,-0.453,-0.3264,0.1463,0.8691,0.2699,0.4146,-0.1381,0.9371,-0.3206,-0.4751,0.2214,0.8516,-0.1417,-0.2326,0.1067,0.9563,"Andando","Med",102.0601,35.3965,109.734,104.4444,-680.6198,5.7146,8.5395,-47.1531
-0.4007,0.354,-0.75,0.0156,0.0266,0.0936,-0.3518,0.0257,0.1414,-0.4532,-0.3296,0.1463,0.8688,0.2712,0.4143,-0.1379,0.9361,-0.3237,-0.4756,0.2241,0.8507,-0.1432,-0.2327,0.107,0.956,"Andando","Med",102.0601,35.3965,110.4948,105.1261,-680.0779,6.1086,8.8554,-47.0159
-0.4252,0.3667,-0.726,-0.0023,0.0382,0.1208,-0.309,-0.026,0.0648,-0.454,-0.3319,0.1455,0.8685,0.2717,0.4146,-0.137,0.9354,-0.3258,-0.4764,0.2261,0.8497,-0.1444,-0.2331,0.1069,0.9557,"Andando","Med",102.0601,35.3965,110.4948,105.1261,-680.0779,6.1086,8.8554,-47.0159
-0.4825,0.3757,-0.7246,-0.0551,0.0493,0.126,-0.2217,-0.0608,-0.0269,-0.4549,-0.3328,0.1447,0.8682,0.2716,0.4153,-0.1363,0.9352,-0.3267,-0.4771,0.2271,0.849,-0.1449,-0.2335,0.1067,0.9556,"Andando","Med",102.0601,35.3965,110.4948,105.1261,-680.0779,5.9044,8.9029,-46.9549
-0.539,0.3621,-0.7495,-0.1127,0.0383,0.1074,-0.1104,-0.0243,-0.116,-0.4555,-0.3323,0.1435,0.8683,0.2705,0.4158,-0.1352,0.9356,-0.3262,-0.4772,0.227,0.8489,-0.1447,-0.2336,0.1061,0.9556,"Andando","Med",102.0601,35.3965,109.9941,105.3347,-680.0057,5.7494,9.2014,-46.8809
-0.571,0.3667,-0.8068,-0.1518,0.0395,0.0552,0.0086,0.0325,-0.2099,-0.4556,-0.3303,0.1416,0.8689,0.268,0.4162,-0.1335,0.9365,-0.3244,-0.4767,0.2263,0.8494,-0.144,-0.2335,0.105,0.9559,"Andando","Med",102.0601,35.3965,109.9941,105.3347,-680.0057,5.7494,9.2014,-46.8809
-0.5611,0.3769,-0.8613,-0.149,0.055,-0.002,0.1145,0.0686,-0.3033,-0.4557,-0.3273,0.1395,0.8696,0.265,0.4167,-0.1317,0.9377,-0.3215,-0.4759,0.2247,0.8503,-0.1428,-0.2334,0.1037,0.9562,"Andando","Med",102.0601,35.3965,109.9941,105.3347,-680.0057,5.8628,9.1827,-46.9845
-0.5199,0.362,-0.8846,-0.1133,0.0489,-0.032,0.1595,0.0985,-0.3907,-0.4556,-0.3237,0.1364,0.8706,0.2608,0.4172,-0.1289,0.9393,-0.3181,-0.4748,0.2231,0.8513,-0.1414,-0.2331,0.1018,0.9567,"Andando","Med",102.0601,35.3965,109.9941,105.3347,-680.0057,5.8628,9.1827,-46.9845
-0.4615,0.3264,-0.8691,-0.0547,0.0197,-0.0216,0.1505,0.1114,-0.4563,-0.4558,-0.3201,0.133,0.8716,0.2563,0.4179,-0.1258,0.9408,-0.3147,-0.4738,0.2217,0.8523,-0.1401,-0.2329,0.0998,0.9572,"Andando","Med",102.0601,35.3965,109.742,105.2678,-680.0842,5.7405,9.2368,-46.9244
-0.4221,0.29,-0.8385,-0.0088,-0.0148,0.0073,0.1166,0.0903,-0.4988,-0.4564,-0.3167,0.1289,0.8726,0.2515,0.4188,-0.1221,0.9424,-0.3114,-0.473,0.2206,0.853,-0.1389,-0.2328,0.0975,0.9576,"Andando","Med",102.0601,35.3965,109.742,105.2678,-680.0842,5.7405,9.2368,-46.9244
-0.4132,0.2513,-0.8007,0.0071,-0.0482,0.046,0.101,0.0657,-0.4999,-0.457,-0.3134,0.1255,0.8733,0.2473,0.4198,-0.1191,0.9438,-0.3083,-0.4724,0.2193,0.8537,-0.1377,-0.2328,0.0956,0.958,"Andando","Med",102.0601,35.3965,109.742,105.2678,-680.0842,5.6909,9.0003,-47.0847
-0.4231,0.2084,-0.7761,-0.0013,-0.0892,0.075,0.1038,0.0631,-0.4194,-0.4569,-0.3106,0.123,0.8741,0.2439,0.4201,-0.1168,0.945,-0.3057,-0.4715,0.2181,0.8545,-0.1366,-0.2326,0.0941,0.9583,"Andando","Med",102.0601,35.3965,109.742,105.2678,-680.0842,5.6909,9.0003,-47.0847
-0.4291,0.1688,-0.7694,-0.0092,-0.1274,0.086,0.1152,0.1425,-0.2738,-0.4552,-0.3085,0.1219,0.8753,0.2417,0.4189,-0.1158,0.9457,-0.3036,-0.4695,0.2172,0.8558,-0.1358,-0.2317,0.0932,0.9587,"Andando","Med",102.0601,35.3965,109.9735,105.3189,-680.2912,5.8806,9.2945,-47.0579
-0.4345,0.1507,-0.7732,-0.0163,-0.1519,0.0857,0.102,0.277,-0.1331,-0.4524,-0.3072,0.1214,0.8768,0.2401,0.4167,-0.1154,0.9462,-0.3024,-0.4669,0.2171,0.8573,-0.1354,-0.2303,0.0927,0.9592,"Andando","Med",102.0601,35.3965,109.9735,105.3189,-680.2912,5.8806,9.2945,-47.0579
-0.4507,0.1768,-0.7937,-0.0314,-0.1332,0.0694,0.0094,0.2967,-0.0873,-0.4502,-0.3071,0.1206,0.878,0.2389,0.4148,-0.1147,0.9463,-0.3023,-0.4647,0.2179,0.8582,-0.1355,-0.2291,0.0921,0.9595,"Andando","Med",102.0601,35.3965,109.9735,105.3189,-680.2912,6.0657,9.2696,-47.056
-0.473,0.2258,-0.8111,-0.056,-0.0889,0.0488,-0.1242,0.214,-0.0725,-0.4487,-0.3083,0.1194,0.8789,0.238,0.4134,-0.1135,0.9461,-0.3035,-0.4633,0.2198,0.8585,-0.1363,-0.2284,0.0916,0.9596,"Andando","Med",102.0601,35.3965,109.9735,105.3189,-680.2912,6.0657,9.2696,-47.056
-0.4811,0.2868,-0.8024,-0.0685,-0.031,0.0531,-0.2449,0.16,-0.049,-0.4477,-0.3104,0.1181,0.8796,0.2375,0.4122,-0.1122,0.9456,-0.3055,-0.4623,0.2224,0.8584,-0.1375,-0.2278,0.0911,0.9596,"Andando","Med",102.0601,35.3965,110.2545,104.9467,-679.7227,6.1221,9.4715,-47.0178
-0.4783,0.3354,-0.7864,-0.0682,0.0198,0.0681,-0.3081,0.1515,-0.0223,-0.4465,-0.3132,0.1168,0.8803,0.2372,0.4108,-0.1108,0.9449,-0.3081,-0.4612,0.2257,0.8581,-0.1391,-0.2272,0.0907,0.9596,"Andando","Med",102.0601,35.3965,110.2545,104.9467,-679.7227,6.1221,9.4715,-47.0178
-0.4754,0.3622,-0.7681,-0.0665,0.046,0.0864,-0.3584,0.1855,0.0182,-0.4449,-0.3164,0.1155,0.8812,0.2371,0.409,-0.1095,0.944,-0.3112,-0.4599,0.2294,0.8578,-0.1408,-0.2264,0.0903,0.9596,"Andando","Med",102.0601,35.3965,110.2545,104.9467,-679.7227,6.4897,9.8108,-46.6775
-0.4812,0.3705,-0.756,-0.0731,0.0599,0.1006,-0.3778,0.221,0.033,-0.4425,-0.3196,0.1144,0.8824,0.2369,0.4065,-0.1084,0.9431,-0.3142,-0.4579,0.2332,0.8579,-0.1426,-0.2252,0.0899,0.9596,"Andando","Med",102.0601,35.3965,110.2545,104.9467,-679.7227,6.4897,9.8108,-46.6775
-0.4922,0.3025,-0.7688,-0.0861,0.0031,0.0959,-0.3508,0.3377,0.0383,-0.4389,-0.3225,0.1135,0.8841,0.2363,0.403,-0.1074,0.9423,-0.317,-0.4547,0.237,0.8585,-0.1443,-0.2234,0.0895,0.9598,"Andando","Med",102.0601,35.3965,110.9757,105.8031,-679.9122,6.6684,10.0707,-46.5617
-0.5077,0.2445,-0.8255,-0.1064,-0.0705,0.0476,-0.3151,0.4499,0.0462,-0.4343,-0.3254,0.1129,0.8862,0.2359,0.3987,-0.1068,0.9415,-0.3197,-0.4508,0.2407,0.8596,-0.1459,-0.2212,0.0892,0.9601,"Andando","Med",102.0601,35.3965,110.9757,105.8031,-679.9122,6.6684,10.0707,-46.5617
-0.5178,0.2703,-0.8798,-0.122,-0.0624,-0.0118,-0.3131,0.5007,0.0841,-0.4293,-0.3286,0.1128,0.8884,0.2358,0.394,-0.1065,0.9405,-0.3227,-0.4466,0.2447,0.8606,-0.1477,-0.2188,0.0891,0.9604,"Andando","Med",102.0601,35.3965,110.9757,105.8031,-679.9122,7.0543,10.3007,-46.5442
-0.5312,0.3141,-0.8875,-0.1385,-0.0176,-0.0275,-0.3373,0.5207,0.1364,-0.4241,-0.3321,0.113,0.8904,0.2361,0.389,-0.1066,0.9393,-0.326,-0.4424,0.2488,0.8616,-0.1496,-0.2164,0.0892,0.9606,"Andando","Med",102.0601,35.3965,110.9757,105.8031,-679.9122,7.0543,10.3007,-46.5442
-0.5531,0.3236,-0.8688,-0.1655,-0.007,-0.0112,-0.3521,0.4965,0.182,-0.4191,-0.336,0.1135,0.8924,0.2368,0.3842,-0.107,0.938,-0.3298,-0.4384,0.2532,0.8624,-0.1517,-0.214,0.0894,0.9608,"Andando","Med",102.0601,35.3965,111.9447,106.3324,-679.5552,7.7941,10.5616,-46.5653
-0.5398,0.3218,-0.8383,-0.1678,-0.0112,0.0183,-0.3915,0.4901,0.2142,-0.4138,-0.3405,0.1143,0.8943,0.2379,0.379,-0.1075,0.9364,-0.334,-0.4343,0.258,0.863,-0.154,-0.2116,0.0898,0.961,"Andando","Med",102.0601,35.3965,111.9447,106.3324,-679.5552,7.7941,10.5616,-46.5653
-0.4939,0.3161,-0.8091,-0.1299,-0.0218,0.05,-0.4321,0.5331,0.2688,-0.4078,-0.3456,0.1156,0.8964,0.2393,0.3731,-0.1085,0.9346,-0.3387,-0.4298,0.2631,0.8637,-0.1566,-0.2089,0.0905,0.9611,"Andando","Med",102.0601,35.3965,111.9447,106.3324,-679.5552,8.2291,10.9647,-46.1096
-0.4576,0.3084,-0.7992,-0.0974,-0.0328,0.0648,-0.4446,0.5898,0.3398,-0.4008,-0.3509,0.1176,0.8987,0.2412,0.3664,-0.1101,0.9326,-0.3438,-0.4246,0.2686,0.8646,-0.1593,-0.2057,0.0914,0.9612,"Andando","Med",102.0601,35.3965,112.9359,106.9879,-679.1121,8.8407,11.0993,-46.0568
